timestamp2001_ms+[TREMOR12_samples_2020_07_01_0727.csv]TREMOR12_samples_2020_07_01_072!$A$1:$A$41,roll,pitch,yaw,rotX,rotY,rotZ,accX,accY,accZ,gravX,gravY,gravZ
4.55616E+11,-0.268757911,0.01642775,0.123094821,0.020963661,-0.064637236,-0.04564184,-0.030481398,-0.055560533,0.006962121,-0.26352495,-0.122784197,-0.956806481
4.55616E+11,-0.269730585,0.016055764,0.12371377,0.061535299,-0.110241435,-0.054150637,-0.030486692,-0.048095096,0.001352371,-0.264435172,-0.123398438,-0.956476271
4.55616E+11,-0.271110167,0.015760443,0.124805385,0.108517669,-0.155815512,-0.057342701,-0.024381861,-0.040938899,0.001512426,-0.265718251,-0.124481633,-0.955980182
4.55616E+11,-0.273008055,0.015626416,0.126264609,0.144899592,-0.200314447,-0.049840044,-0.023517527,-0.043168526,-0.00742454,-0.267482847,-0.125929371,-0.955298245
4.55616E+11,-0.278763571,0.016071177,0.132999839,0.154541567,-0.208791837,-0.046643507,-0.026945582,-0.039419506,-0.000295419,-0.272737026,-0.132608086,-0.952905893
4.55616E+11,-0.280826715,0.015949581,0.13456017,0.142779633,-0.20885326,-0.058346767,-0.035123922,-0.047959179,0.020103831,-0.274644762,-0.134154469,-0.952141166
4.55616E+11,-0.283082637,0.015678176,0.136053967,0.134316593,-0.237573504,-0.068905666,-0.025479849,-0.052353669,0.025971698,-0.276735723,-0.135634616,-0.951325715
4.55616E+11,-0.288556545,0.015869291,0.142325184,0.125968054,-0.258806229,-0.056023043,-0.017167212,-0.038452681,0.023547493,-0.281691432,-0.141845167,-0.94896251
4.55616E+11,-0.292494048,0.016019262,0.146051803,0.097256802,-0.232258856,-0.033624206,-0.008246686,-0.02213046,0.017966218,-0.285271376,-0.145533115,-0.947333276
4.55616E+11,-0.295286389,0.016168263,0.148908502,0.075986557,-0.208889276,-0.015504071,-0.002245682,-0.019411584,0.011896786,-0.287793368,-0.148358807,-0.946131408
4.55616E+11,-0.297534629,0.016202573,0.151258581,0.108985126,-0.22799474,-0.033678286,0.002631099,-0.013837801,0.005570844,-0.289816767,-0.150682464,-0.945146024
4.55616E+11,-0.300231168,0.016349992,0.156692495,0.159323767,-0.293704569,-0.027231321,0.001605783,-0.049834758,-0.003487007,-0.292117864,-0.156052083,-0.943565011
4.55616E+11,-0.304507125,0.016454574,0.158740767,0.184800714,-0.337364227,-0.077311493,-0.004468478,0.002938824,0.024611464,-0.29605338,-0.15807493,-0.942000389
4.55616E+11,-0.308098377,0.016023606,0.160791727,0.13217102,-0.23882769,-0.106269881,0.001514428,0.002690103,0.041999582,-0.29933548,-0.160099775,-0.940620184
4.55616E+11,-0.310325692,0.015709721,0.163453739,0.017158987,-0.132684693,-0.042269703,0.002973989,-0.021996025,0.046460316,-0.301298559,-0.162726879,-0.939541996
4.55616E+11,-0.310378935,0.015838318,0.164109539,-0.148560017,-0.036983166,0.099779516,0.020172751,-0.023592044,0.033860765,-0.301315933,-0.163373902,-0.939424098
4.55616E+11,-0.312085586,0.018008489,0.16179798,-0.194205359,-0.079879969,0.329414815,0.000314798,-0.001916681,0.032008328,-0.303033918,-0.161092967,-0.93926543
4.55616E+11,-0.313372813,0.021457899,0.160300771,-0.175487414,-0.106025688,0.4393197,0.012568674,-0.026374251,0.020157633,-0.304316729,-0.159615129,-0.939102948
4.55616E+11,-0.31489746,0.025198051,0.158578431,-0.142119333,-0.195110142,0.445886374,0.015397068,-0.022413734,-0.00237104,-0.305832863,-0.157914639,-0.938897908
4.55616E+11,-0.31935695,0.028947821,0.156875422,-0.083262064,-0.344896793,0.394965619,-0.017307045,-0.013795921,-0.001735497,-0.310100794,-0.156232759,-0.937778652
4.55616E+11,-0.324364777,0.032291267,0.155459702,-0.011677674,-0.481882244,0.347172797,-0.029649645,-0.024853226,0.009329184,-0.314863294,-0.15483427,-0.936422706
4.55616E+11,-0.330589442,0.035662954,0.154674722,0.045104332,-0.595406353,0.339891434,-0.02305509,-0.027826054,0.011112659,-0.320725441,-0.15405871,-0.934559286
4.55616E+11,-0.337543565,0.039273103,0.154119767,0.068808548,-0.649442136,0.361327231,-0.020273997,-0.02292702,0.017195249,-0.327244937,-0.153510362,-0.932386875
4.55616E+11,-0.345368513,0.043306335,0.153911432,0.079768576,-0.688605905,0.397687674,-0.01210764,-0.015564528,0.012942403,-0.334541529,-0.153304487,-0.92982775
4.55616E+11,-0.353314399,0.04766909,0.153351895,0.10031455,-0.736235678,0.431915432,-0.01422183,-0.016117474,0.008168437,-0.341948837,-0.15275155,-0.927220583
4.55616E+11,-0.361143767,0.052228826,0.15283746,0.110855818,-0.695838153,0.4402996,-0.026110154,-0.02497245,0.015851133,-0.349225551,-0.152243122,-0.924588323
4.55616E+11,-0.367852475,0.056628512,0.152270092,0.095401451,-0.567462564,0.417549789,-0.027971419,-0.03534463,0.022326488,-0.355451435,-0.151682347,-0.922305107
4.55616E+11,-0.373790942,0.060428448,0.152252155,0.032729443,-0.383116692,0.344611585,-0.024925794,-0.025505183,0.023192657,-0.360923201,-0.151664615,-0.920180559
4.55616E+11,-0.376523779,0.062819256,0.15090274,-0.064206451,-0.19038929,0.242941692,-0.031111324,-0.042433608,0.019706815,-0.363511473,-0.150330678,-0.919380248
4.55616E+11,-0.377094419,0.063887254,0.149148206,-0.140983567,0.012975886,0.134783,-0.042651441,-0.056650124,0.015699465,-0.364132613,-0.148595855,-0.919416487
4.55616E+11,-0.375280866,0.0637977,0.147283787,-0.185833648,0.233431906,0.038220767,-0.064146511,-0.057883747,0.009427601,-0.362565517,-0.146751866,-0.920331538
4.55616E+11,-0.374916008,0.063459278,0.14646392,-0.212189659,0.410327226,-0.019845774,-0.081879184,-0.029718347,-0.001925204,-0.362273633,-0.145940825,-0.92057538
4.55616E+11,-0.36958211,0.062282627,0.144713564,-0.197924227,0.549345911,-0.053378165,-0.063509487,-0.014070425,-0.010160427,-0.357449979,-0.144208997,-0.9227314
4.55616E+11,-0.363608976,0.06100768,0.143399427,-0.158716947,0.572715163,-0.074894115,-0.0307981,0.001901999,-0.011481815,-0.351999134,-0.142908469,-0.925026357
4.55616E+11,-0.358617866,0.059794295,0.142471341,-0.118900873,0.443236917,-0.079946928,-0.021868942,-0.018669942,-0.03662074,-0.347424269,-0.141989842,-0.926895499
4.55616E+11,-0.355360237,0.058810432,0.142818433,-0.056556333,0.287275136,-0.07752908,-0.02365621,-0.0333868,-0.041124858,-0.344385773,-0.142333418,-0.927976072
4.55616E+11,-0.353247195,2.803488087,0.143178339,0.033260852,0.17703712,-0.074242212,-0.04055867,-0.03756243,-0.026760219,-0.342406422,-0.142689645,-0.928653598
4.55616E+11,-0.351883034,2.803190515,0.144205501,0.102710985,0.120945171,-0.060394038,-0.062704764,-0.042664628,-0.031757377,-0.341088563,-0.143706217,-0.928981781
4.55616E+11,-0.350555358,2.803044562,0.145726978,0.147299707,0.141174346,-0.071246423,-0.085971326,-0.050283864,-0.036272507,-0.339779407,-0.145211741,-0.929227352
4.55616E+11,-0.352996392,2.803324643,0.150157178,0.165172875,0.215101182,-0.107811004,-0.115240864,-0.065631673,-0.024503335,-0.341820896,-0.149593547,-0.927782416
4.55616E+11,-0.350068581,2.802616627,0.152006594,0.14132528,0.303097427,-0.134683371,-0.128613234,-0.072165146,-0.010721731,-0.339007616,-0.15142189,-0.928517759
4.55616E+11,-0.346694572,2.801591769,0.153272034,0.060356613,0.3199175,-0.136645585,-0.121620499,-0.088233143,0.004411253,-0.335807472,-0.152672619,-0.929475367
4.55616E+11,-0.343513684,2.800257553,0.153415533,-0.064039424,0.288903713,-0.127675265,-0.097990058,-0.092470601,0.02165891,-0.332841843,-0.152814433,-0.93051815
4.55616E+11,-0.344669797,2.798983248,0.156130435,-0.161581829,0.227784887,-0.153948635,-0.072351933,-0.072728828,0.043401554,-0.333775997,-0.15549688,-0.92973882
4.55616E+11,-0.343335917,2.796816388,0.154771002,-0.210949689,0.041876342,-0.151117966,-0.055134695,-0.067922577,0.026740668,-0.332606405,-0.154153839,-0.930381417
4.55616E+11,-0.346005766,2.794892804,0.153065305,-0.226124436,-0.439032972,-0.112283222,-0.025036363,-0.0424322,0.019946057,-0.335177869,-0.152468309,-0.929736078
4.55616E+11,-0.355703341,2.793368085,0.151608081,-0.166973814,-1.187414408,-0.086714476,0.012590123,0.004680916,-0.031846788,-0.344255149,-0.151027963,-0.926649332
4.55616E+11,-0.37322361,2.792547264,0.151330948,-0.006592803,-1.961057067,-0.057080016,0.063653186,0.018765477,-0.060213257,-0.360451877,-0.150754005,-0.920514882
4.55616E+11,-0.39846724,2.79289808,0.152825161,0.205881327,-2.697392941,-0.013831614,0.09916687,0.024759047,-0.064518511,-0.383483887,-0.152230963,-0.910914838
4.55616E+11,-0.430519011,2.794322364,0.156268296,0.428427011,-3.326607704,-0.014676634,0.106684655,0.029610727,-0.084074385,-0.412257165,-0.155633062,-0.89767611
4.55616E+11,-0.467118383,2.796589051,0.161797373,0.640418887,-3.707447052,-0.039717227,0.019903803,-0.00797502,-0.012605929,-0.444433838,-0.161092371,-0.881208181
4.55616E+11,-0.506266713,2.799730867,0.168618476,0.757063866,-3.882431507,-0.041645519,-0.003040744,-0.023265235,0.013448409,-0.478038371,-0.167820573,-0.862157524
4.55616E+11,-0.546399865,2.803183975,0.175627561,0.767871201,-3.955754519,-0.063859515,-0.014501592,-0.038134027,0.045008171,-0.511621475,-0.174726084,-0.841257572
4.55616E+11,-0.586979809,2.806152668,0.182407467,0.706027269,-4.021961212,-0.139239326,-0.016862992,-0.038237385,0.066118397,-0.544660449,-0.181397617,-0.818803966
4.55616E+11,-0.629771174,2.807854718,0.189348378,0.656338751,-4.336905479,-0.307786793,-0.041210745,-0.030622594,0.050111521,-0.578433394,-0.188218966,-0.7937181
4.55616E+11,-0.675976757,2.808031317,0.197682151,0.680972695,-4.702932835,-0.558534384,-0.047093734,-0.035704289,0.065364204,-0.613474488,-0.196397156,-0.764903367
4.55616E+11,-0.726384925,2.806627028,0.208409465,0.749431312,-5.217772007,-0.884701848,-0.05074669,-8.14E-05,0.029270422,-0.649799585,-0.206904039,-0.731403589
4.55616E+11,-0.784968768,2.80360469,0.223154078,0.918896735,-6.184137344,-1.351679087,-0.081184641,0.018318918,-0.019954011,-0.689277411,-0.221306592,-0.689869583
4.55616E+11,-0.85410281,2.799840105,0.243878282,1.234200835,-7.253461361,-1.897695541,-0.095706694,-0.020983221,-0.004663445,-0.731670618,-0.241467953,-0.637456894
4.55616E+11,-0.931125106,2.797433087,0.270523941,1.55593884,-7.864707947,-2.313885927,-0.089923598,-0.042929046,0.021571992,-0.773113489,-0.267236352,-0.575221896
4.55616E+11,-1.009243317,2.796435883,0.299837795,1.550500154,-7.766571045,-2.49980545,-0.135502875,-0.036833856,0.016876426,-0.808665216,-0.295365244,-0.508743465
4.55616E+11,-1.08113125,2.795511195,0.327778157,1.229749799,-6.961043835,-2.422407389,-0.164859593,-0.047108799,0.034050327,-0.835506618,-0.321940273,-0.44528994
4.55616E+11,-1.138621867,2.793678604,0.35080454,0.735272825,-5.355223656,-2.007678747,-0.190062851,-0.074162699,0.066554904,-0.852753282,-0.34365347,-0.393337131
4.55616E+11,-1.174342334,2.789876261,0.365344594,0.087753415,-3.11267066,-1.280788183,-0.194169149,-0.035032302,0.064796276,-0.861555934,-0.357271165,-0.360664189
4.55616E+11,-1.184850421,2.782638801,0.37055005,-0.588004053,-0.727936447,-0.568118811,-0.156379715,0.004202789,0.018824536,-0.863563538,-0.362128198,-0.350886315
4.55616E+11,-1.173833761,2.772787234,0.368648226,-1.003281951,1.180965304,-0.05957007,-0.137248874,-0.027523611,-0.047086082,-0.860279202,-0.360354811,-0.360644013
4.55616E+11,-1.148534967,2.762943905,0.362563796,-1.084030986,2.463457584,0.261112601,-0.141733155,-0.032397181,-0.082669035,-0.852865219,-0.354672521,-0.38318181
4.55616E+11,-1.115440976,2.755578662,0.355259664,-0.86460036,3.196973801,0.390589118,-0.092378736,-0.024831578,-0.065600678,-0.84202373,-0.347833812,-0.412319869
4.55616E+11,-1.079881799,2.751905675,0.348835196,-0.508858323,3.479162216,0.418632984,-0.081415594,-0.025933426,-0.075836204,-0.828786433,-0.341803402,-0.443038911
4.55616E+11,-1.043371406,2.751512277,0.343598942,-0.227384329,3.694314718,0.449216992,-0.075959302,-0.038549401,-0.027513225,-0.81359756,-0.336877853,-0.473890573
4.55616E+11,-1.004943332,2.752778236,0.338434103,-0.166149259,3.937844038,0.526196241,-0.037384599,-0.03926643,0.055223629,-0.796248853,-0.332010418,-0.505724132
4.55616E+11,-0.964574704,2.75385337,0.33193489,-0.333482653,4.119376659,0.619992733,0.011200121,-0.028970232,0.129683614,-0.7769472,-0.325872898,-0.538664937
4.55616E+11,-0.921383337,2.753101897,0.322861013,-0.685127556,4.346207142,0.715226293,0.071373969,-0.040217124,0.228152439,-0.755288124,-0.317281038,-0.573474109
4.55616E+11,-0.876394676,2.750312875,0.310742727,-1.047964334,4.414778233,0.802433372,0.103520997,-0.017338982,0.250970751,-0.731633782,-0.305765867,-0.609277606
4.55616E+11,-0.831151951,2.746278776,0.29594334,-1.321048975,4.384773731,0.887557864,0.15486747,-0.0214833,0.229623556,-0.706594765,-0.291642308,-0.644723654
4.55616E+11,-0.787838008,2.74284503,0.278801333,-1.444071889,4.165271759,1.054992676,0.209596366,0.051646948,0.193599075,-0.681459129,-0.275203466,-0.678141952
4.55616E+11,-0.748759338,2.740963989,0.260485294,-1.428224802,3.731372118,1.164014816,0.308889121,0.087414004,0.106641002,-0.657766104,-0.257549495,-0.707822025
4.55616E+11,-0.716877988,2.741531978,0.242842106,-1.203890204,2.993039846,1.239243269,0.388152659,0.086272247,0.017034827,-0.63775593,-0.240462303,-0.73174125
4.55616E+11,-0.695807507,2.745568523,0.227900228,-0.760303795,1.89289999,1.262684703,0.409907609,0.10428948,-0.079885572,-0.624430954,-0.225932539,-0.747690082
4.55616E+11,-0.690959679,2.752426675,0.218566702,-0.103679128,0.139393315,1.046397686,0.381728768,0.141482741,-0.183124006,-0.622115731,-0.216830641,-0.752300799
4.55616E+11,-0.709419453,2.762198949,0.218562209,0.861771822,-2.261976004,0.591169357,0.285722941,0.182066739,-0.273134559,-0.635896862,-0.21682626,-0.740689874
4.55616E+11,-0.756200607,2.773018496,0.23060217,1.835881829,-5.205052853,-0.252927244,0.155059636,0.141161457,-0.302946985,-0.667999089,-0.2285638,-0.708191931
4.55616E+11,-0.833987181,2.783716086,0.255676634,2.698532581,-8.246829033,-1.340736628,-0.022839196,0.10459993,-0.283447355,-0.716540694,-0.252900094,-0.65008539
4.55616E+11,-0.936682388,2.795589371,0.292019716,3.313768864,-10.39891815,-2.311061859,-0.153465748,-0.045563295,-0.139970079,-0.771491528,-0.287887007,-0.56738162
4.55616E+11,-1.052237967,2.811147509,0.334766147,3.634228706,-11.17106056,-2.89959836,-0.242805824,-0.117145665,-0.007242262,-0.820319772,-0.328548312,-0.468114793
4.55616E+11,-1.167594063,2.832244651,0.378673617,3.719597578,-10.53114605,-3.064998388,-0.310911745,-0.168138161,0.087377816,-0.854646087,-0.369688392,-0.364568979
4.55616E+11,-1.266236799,2.856335092,0.416408742,3.212273836,-8.248854637,-2.613869429,-0.377418786,-0.300248474,0.222871736,-0.872459173,-0.404478699,-0.274248093
4.55616E+11,-1.327679115,2.874614698,0.439672368,1.820849061,-4.289456367,-1.461231589,-0.441177636,-0.372666299,0.392974228,-0.878280401,-0.425643027,-0.217833847
4.55616E+11,-1.33413962,2.875941484,0.443583759,-0.375178993,0.651551545,0.013918012,-0.386878908,-0.308720648,0.556825519,-0.878044188,-0.429179132,-0.211763248
4.55616E+11,-1.289506532,2.857261189,0.429785062,-2.451836824,4.504396915,1.149555206,-0.203057677,-0.115581661,0.571212113,-0.873327792,-0.416675419,-0.252349198
4.55616E+11,-1.219352183,2.829855104,0.404568073,-3.28755331,6.180118084,1.720775008,0.009552497,-0.074838348,0.381160527,-0.863083363,-0.393621743,-0.316463262
4.55616E+11,-1.150542545,2.805626732,0.376605894,-3.002806902,5.704945564,1.705424547,0.191363245,-0.046143558,0.117619567,-0.849001765,-0.367766351,-0.379399359
4.55616E+11,-1.105927923,2.789169869,0.354804079,-2.045590401,3.07702446,1.136746168,0.327157468,0.048441201,-0.176694125,-0.838204861,-0.347406656,-0.420382291
4.55616E+11,-1.102947135,2.782247045,0.345928771,-0.594983518,-0.991737485,0.276602894,0.361532897,0.156178728,-0.493548155,-0.839667022,-0.339070588,-0.424252748
4.55616E+11,-1.141986866,2.786495799,0.351465544,0.982977152,-4.552457809,-0.510742068,0.200316086,0.104573816,-0.580118656,-0.853865266,-0.344274133,-0.390370876
4.55616E+11,-1.207151535,2.801548477,0.3670107,2.153602123,-6.294091702,-0.986662805,0.035650026,0.046754058,-0.372914255,-0.872365713,-0.358826816,-0.331996024
4.55616E+11,-1.277585399,2.824013618,0.38493594,2.619897366,-6.009661198,-0.990935802,-0.091737494,-0.053562123,-0.143713295,-0.887266397,-0.375499755,-0.267877281
4.55616E+11,-1.329985034,2.847173752,0.396831483,2.224658012,-3.636436224,-0.399560094,-0.200330913,-0.06919048,0.071581081,-0.895677388,-0.386498004,-0.219957545
4.55616E+11,-1.344920673,2.862910873,0.396792933,1.099476933,0.081946373,0.593041301,-0.208590567,0.048007239,0.193314701,-0.898877084,-0.38646245,-0.20655933
4.55616E+11,-1.319234439,2.867804796,0.384747482,-0.131811395,3.559784889,1.474637389,-0.132462785,0.089985736,0.208304316,-0.897719085,-0.375325084,-0.230719477
4.55616E+11,-1.268162844,2.866770158,0.365066172,-0.727661967,5.399597645,1.955298185,-0.088055916,0.06768921,0.104352824,-0.891649902,-0.35701111,-0.27839458
4.55616E+11,-1.212664372,2.866730542,0.344252272,-0.618386388,5.466617107,1.925989866,-0.111224502,0.014052363,0.029559543,-0.881603837,-0.337492913,-0.329959333
4.55616E+11,-1.167138839,2.869248334,0.328985341,-0.256042838,4.260213375,1.318378687,-0.128467947,-0.004416438,0.067352653,-0.870311379,-0.323082954,-0.371719718
4.55616E+11,-1.142935252,2.871290959,0.32418245,0.064909548,1.780083895,0.221825838,-0.131754637,0.027777702,0.003710108,-0.862462282,-0.318533927,-0.393312782
4.55616E+11,-1.149673685,2.871765794,0.332001626,0.471108675,-1.475358844,-0.984643161,-0.099410467,-0.021170933,-0.041333158,-0.862793505,-0.32593599,-0.386462241
4.55616E+11,-1.183787079,2.871737292,0.350069926,0.760028839,-3.928244352,-1.84540844,-0.071713008,-0.051369391,0.015296112,-0.869876325,-0.342963487,-0.3545295
4.55616E+11,-1.229928695,2.871066084,0.372596405,0.710242093,-4.714064121,-2.165098667,-0.122537673,-0.072610602,0.043162964,-0.877798021,-0.364034921,-0.311366707
4.55616E+11,-1.267580259,2.868645511,0.392464726,0.279161453,-3.382329702,-1.831866741,-0.196321487,-0.131281257,0.117228091,-0.881818771,-0.382466912,-0.275888979
4.55616E+11,-1.276053837,2.860979315,0.403287236,-0.607199848,-0.30325526,-1.016160846,-0.262557298,-0.032604851,0.186134189,-0.88011241,-0.392443985,-0.267188877
4.55616E+11,-1.247524346,2.845247247,0.402375674,-1.652800322,3.023071289,-0.148486719,-0.152690381,0.091114052,0.117220081,-0.872471333,-0.391605377,-0.29229942
4.55616E+11,-1.194064549,2.826042638,0.392776339,-2.027513504,4.970458984,0.415312499,0.01711268,0.102435596,0.008341366,-0.859062135,-0.382754803,-0.339869082
4.55616E+11,-1.136549382,2.811312311,0.380571805,-1.584358811,5.121682644,0.60567838,0.100870758,0.073065802,-0.133102089,-0.84228003,-0.371451437,-0.390625328
4.55616E+11,-1.09179411,2.803724024,0.372331436,-0.79319495,3.778107166,0.32697171,0.129626855,0.061816674,-0.203101516,-0.826648355,-0.363788098,-0.429314256
4.55616E+11,-1.069340403,2.800085672,0.372616025,-0.135919645,1.510152459,-0.380665094,0.13215521,0.063882284,-0.210654959,-0.816710234,-0.36405319,-0.447716027
4.55616E+11,-1.070603217,2.796891453,0.382297737,0.301721036,-0.777658045,-1.181524754,0.159618124,0.047659639,-0.195957184,-0.814143896,-0.373053312,-0.444972992
4.55616E+11,-1.087783434,2.793341203,0.398476846,0.513899028,-2.126292467,-1.679471612,0.223198012,0.052870929,-0.125085056,-0.816215575,-0.388014972,-0.428061306
4.55616E+11,-1.112377331,2.79020628,0.417073799,0.608991385,-2.675423861,-1.791164637,0.281384051,0.090282753,-0.122838952,-0.819881976,-0.405086815,-0.404596359
4.55616E+11,-1.137956713,2.789494255,0.434554603,0.724590659,-2.488446951,-1.505054355,0.319806218,0.076325655,-0.132977456,-0.823407292,-0.421006441,-0.380465537
4.55616E+11,-1.156549974,2.792508059,0.446375997,0.714615762,-1.402966142,-0.749748588,0.323176563,0.095487304,-0.081487387,-0.825724781,-0.431699455,-0.363062173
4.55616E+11,-1.161605954,2.797902404,0.448459501,0.456290662,0.104384623,0.261017948,0.398683339,0.155074462,-0.066204332,-0.82672286,-0.433577895,-0.358524054
4.55616E+11,-1.153359667,2.805367099,0.440432932,0.256860614,1.472656131,1.241103053,0.405674189,0.142944887,-0.101930127,-0.826893032,-0.426331133,-0.366728306
4.55616E+11,-1.135373106,2.815830142,0.425089403,0.232140824,2.437932968,1.938133597,0.340264708,0.130587652,-0.106040135,-0.82599777,-0.412402242,-0.38425529
4.55616E+11,-1.114327074,2.829473177,0.406866893,0.396587223,2.660050869,2.225070477,0.205426067,0.103818044,-0.161165252,-0.82433784,-0.395733953,-0.404798508
4.55616E+11,-1.097500409,2.846233116,0.390949405,0.763626158,2.172803879,2.036695004,0.008398715,0.052865062,-0.16261591,-0.822912872,-0.381066352,-0.421429515
4.55616E+11,-1.089258527,2.863465893,0.381504245,1.032308221,1.201772094,1.378486753,-0.200903088,-0.046735134,-0.045282874,-0.82256496,-0.372316986,-0.429845303
4.55616E+11,-1.092295398,2.87634859,0.380656428,0.992130101,-0.193665549,0.355399311,-0.353664219,-0.111883707,0.108459726,-0.82414645,-0.371529996,-0.427490503
4.55616E+11,-1.106462625,2.881303643,0.388297203,0.653419614,-1.540016651,-0.735297203,-0.418414205,-0.21632725,0.232481867,-0.827557445,-0.378612936,-0.414488703
4.55616E+11,-1.126687966,2.877181523,0.401834608,0.111721978,-2.346542835,-1.569946766,-0.419391632,-0.273321241,0.36904645,-0.831066132,-0.39110747,-0.395428896
4.55616E+11,-1.14729933,2.865728985,0.418777136,-0.344559312,-2.511587381,-2.085635185,-0.374183506,-0.235293686,0.380566418,-0.832878292,-0.406643569,-0.375439465
4.55616E+11,-1.163125323,2.850089592,0.437194429,-0.616205275,-2.108240604,-2.289882421,-0.273999572,-0.220109463,0.338063151,-0.83169806,-0.423399448,-0.359181315
4.55616E+11,-1.172527403,2.832835817,0.455312979,-0.748957753,-1.541379213,-2.253888369,-0.159123063,-0.158324808,0.270752788,-0.827830672,-0.439743429,-0.348313212
4.55616E+11,-1.175850489,2.81553259,0.471404103,-0.823328972,-0.946075499,-1.996228337,-0.017315356,-0.052850835,0.205723494,-0.822345316,-0.454137683,-0.342793196
4.55616E+11,-1.170586559,2.799168773,0.481858415,-0.989879906,0.05386059,-1.328785777,0.144038811,0.017534448,0.148577973,-0.816112161,-0.463426769,-0.34524852
4.55616E+11,-1.154338685,2.78414486,0.482201384,-1.283024311,1.214040399,-0.28273508,0.363167226,0.150177822,0.071365044,-0.810249746,-0.463730663,-0.35839811
4.55616E+11,-1.129423566,2.772148739,0.471330882,-1.445277929,2.145290136,0.812724292,0.559684753,0.237824902,-0.047665153,-0.805580139,-0.454072446,-0.380603284
4.55616E+11,-1.101926288,2.765958648,0.452023373,-1.282974362,2.523278713,1.69025135,0.636300147,0.26834482,-0.140212938,-0.802483618,-0.436786592,-0.4064942
4.55616E+11,-1.078492678,2.767962855,0.428900288,-0.754004478,2.366913319,2.260054827,0.591953635,0.282432854,-0.281274945,-0.801426291,-0.415870965,-0.429845661
4.55616E+11,-1.061536455,2.779714727,0.405509607,0.044042807,2.059775591,2.661006451,0.496740758,0.235032752,-0.406499058,-0.802298009,-0.394487083,-0.447993129
4.55616E+11,-1.050698179,2.801261985,0.383692189,0.844249666,1.878557682,2.929278374,0.333711267,0.200564384,-0.434372276,-0.804673791,-0.374346733,-0.460830361
4.55616E+11,-1.041584161,2.827699526,0.365000451,1.26607585,1.893752933,2.769108295,-0.392481774,0.059067637,-0.093345895,-0.806340218,-0.356949717,-0.471595496
4.55616E+11,-1.028652164,2.85098154,0.352535956,1.194182038,2.200961113,1.935140133,-0.750687957,-0.113201924,0.12089926,-0.803923249,-0.345278919,-0.484241545
4.55616E+11,-1.009533401,2.864754875,0.348821817,0.797036707,2.410522699,0.659602284,-0.912500381,-0.240179405,0.226946861,-0.795598984,-0.341790825,-0.500201225
4.55616E+11,-0.987323645,2.867134505,0.353595758,0.336525023,2.231479883,-0.569778919,-0.807713568,-0.277292341,0.278819799,-0.782923639,-0.346273333,-0.51684165
4.55616E+11,-0.966385505,2.860781869,0.363836015,0.011194795,1.738848805,-1.335555911,-0.596261382,-0.255649477,0.263605833,-0.768972993,-0.355861753,-0.531077147
4.55616E+11,-0.947905636,2.850058906,0.375428942,-0.203579068,1.392636895,-1.548364878,-0.384083062,-0.210003778,0.289487481,-0.75562638,-0.366671622,-0.542752862
4.55616E+11,-0.928778451,2.836594546,0.385189769,-0.524035931,1.459020734,-1.507143617,-0.184109673,-0.153607637,0.323414415,-0.74220562,-0.375735015,-0.554936051
4.55616E+11,-0.904225412,2.820030009,0.390538204,-1.024097443,1.976897836,-1.286488771,0.058509417,-0.080663338,0.309288472,-0.726768076,-0.380686164,-0.571739614
4.55616E+11,-0.872611696,2.801994867,0.3892307,-1.478828907,2.633698463,-0.819927275,0.358600885,0.040533289,0.255100042,-0.70871383,-0.379476756,-0.594745398
4.55616E+11,-0.838269934,2.786386479,0.381041401,-1.652232885,2.854245424,-0.152246401,0.706092954,0.158554256,0.111813746,-0.690162778,-0.371887386,-0.620785892
4.55616E+11,-0.808714881,2.776641351,0.367035643,-1.593259692,2.476648808,0.594485044,0.922838151,0.224008173,-0.023693798,-0.675218523,-0.358850092,-0.644442797
4.55616E+11,-0.788079987,2.773536573,0.349284153,-1.381409526,1.742162228,1.209580541,0.978003025,0.27649042,-0.141786844,-0.666189671,-0.342225283,-0.662625968
4.55616E+11,-0.781311073,2.777783988,0.331340253,-0.818238616,0.467351347,1.65037334,0.903440416,0.288948983,-0.289610803,-0.665906847,-0.325310677,-0.671372473
4.55616E+11,-0.791864135,2.790733007,0.317179825,0.112134546,-1.007941842,1.925395846,0.687136471,0.267103761,-0.342593461,-0.676165402,-0.311888307,-0.667477369
4.55616E+11,-0.817399433,2.810780417,0.308824301,0.998565257,-2.205109596,1.8774997,0.25945434,0.203474894,-0.330422103,-0.694863856,-0.303938776,-0.651755631
4.55616E+11,-0.850279708,2.831839146,0.308284055,1.568845153,-2.737179279,1.164860487,-0.320156217,0.045214806,-0.208169371,-0.716037631,-0.303424031,-0.628668427
4.55616E+11,-0.884606479,2.848481322,0.317346918,1.840394616,-2.984456301,0.051032413,-0.676632881,-0.149729669,-0.054323986,-0.735033989,-0.312047064,-0.601956546
4.55616E+11,-0.919755461,2.85950129,0.333549747,1.785109162,-3.19865346,-0.809145987,-0.781147718,-0.249077857,0.047514159,-0.751612902,-0.327399194,-0.572614849
4.55616E+11,-0.95213511,2.865465991,0.351705796,1.419422269,-2.928821802,-1.198369861,-0.756284773,-0.298276812,0.165278882,-0.764787614,-0.344499677,-0.544444501
4.55616E+11,-0.975741709,2.866585031,0.367811328,0.849798143,-2.06692481,-1.265555024,-0.727681458,-0.331801713,0.244238362,-0.772730529,-0.35957402,-0.523062229
4.55616E+11,-0.983792332,2.861873623,0.379739666,0.098551549,-0.566873908,-1.220011473,-0.693964541,-0.36831972,0.321922421,-0.773290098,-0.370678693,-0.514412045
4.55616E+11,-0.972090136,2.849731611,0.386373764,-0.788533032,1.125109911,-1.169340134,-0.600553393,-0.312987357,0.378366917,-0.765169263,-0.376831979,-0.522028387
4.55616E+11,-0.944666967,2.830355642,0.388142748,-1.529060841,2.23107481,-1.177047372,-0.352634788,-0.198693722,0.336259872,-0.750026345,-0.378469974,-0.542421341
4.55616E+11,-0.911554608,2.807798768,0.38645735,-1.809399724,2.459103107,-1.084146976,0.024915949,-0.062055435,0.230445743,-0.732160807,-0.376909405,-0.567344546
4.55616E+11,-0.883411844,2.787441744,0.382869846,-1.622960925,1.848740578,-0.815027595,0.445752382,0.121875077,0.063963957,-0.71694684,-0.373584062,-0.588576376
4.55616E+11,-0.868692521,2.773944058,0.378728703,-1.074904084,0.645068169,-0.365872949,0.783126891,0.244632751,-0.094108887,-0.709381163,-0.369739562,-0.600059211
4.55616E+11,-0.869751687,2.768738505,0.374517693,-0.512688398,-0.582828224,0.13559337,0.942416251,0.306283891,-0.202244788,-0.71119982,-0.365823686,-0.600306451
4.55616E+11,-0.881933027,2.770447205,0.368437864,-0.202020317,-1.298084021,0.725820959,0.961007774,0.349416375,-0.242706969,-0.720163047,-0.360158563,-0.593001664
4.55616E+11,-0.90019545,2.778945053,0.358428045,0.060975049,-1.575465441,1.470622659,0.87243849,0.360995471,-0.258735329,-0.733659804,-0.3508026,-0.581962943
4.55616E+11,-0.922056067,2.795056908,0.344375538,0.430671841,-1.627543449,2.21018362,0.674696743,0.308952928,-0.271729499,-0.750059903,-0.337608933,-0.568709314
4.55616E+11,-0.943744802,2.816692745,0.328130015,0.743312776,-1.367703319,2.57768321,0.268281847,0.209999204,-0.242260084,-0.766557574,-0.322273374,-0.555454135
4.55616E+11,-0.960858498,2.839197785,0.313192884,0.904505372,-0.869037807,2.357023239,-0.261968702,0.057166979,-0.161392942,-0.779809892,-0.30809778,-0.544951677
4.55616E+11,-0.971456626,2.857456207,0.304175356,0.909449697,-0.389852494,1.463645935,-0.799430966,-0.128395736,-0.07234785,-0.787803531,-0.299506485,-0.538202047
4.55616E+11,-0.975629876,2.867322817,0.305031354,0.788305938,-0.057868619,0.113365553,-1.140452504,-0.305878103,0.017294452,-0.789830148,-0.300323069,-0.53476578
4.55616E+11,-0.976414544,2.868398712,0.314779224,0.572565854,-0.061884064,-0.993457496,-1.156869769,-0.411554337,0.057902239,-0.787786543,-0.309606552,-0.532481074
4.55616E+11,-0.97571614,2.863279373,0.32924074,0.353904039,-0.093982272,-1.589149475,-1.010366559,-0.39705804,0.093972683,-0.78362453,-0.323324651,-0.530465603
4.55616E+11,-0.972940798,2.854146247,0.345196958,0.122391142,0.012988986,-1.857691884,-0.802399218,-0.345501631,0.141803667,-0.777785718,-0.338382035,-0.529666841
4.55616E+11,-0.965769543,2.841349014,0.361197896,-0.159723148,0.386635602,-2.045817137,-0.610391319,-0.288984686,0.171136186,-0.7694152,-0.353395075,-0.532082856
4.55616E+11,-0.951724019,2.824349376,0.376917013,-0.473325849,0.926899195,-2.241827488,-0.381667912,-0.215577766,0.19851248,-0.757248104,-0.368055642,-0.53954643
4.55616E+11,-0.931708188,2.804426364,0.391395586,-0.67906791,1.334270716,-2.227556229,-0.059983261,-0.089758351,0.165188313,-0.741942406,-0.381478846,-0.551357746
4.55616E+11,-0.911347235,2.78619566,0.402432672,-0.650093555,1.2828058,-1.743114233,0.35446474,0.088541985,0.109969124,-0.72719115,-0.391657829,-0.563735008
4.55616E+11,-0.897894343,2.774757518,0.408413619,-0.371806562,0.72973305,-0.889766514,0.784500003,0.252973616,-0.016001146,-0.717697024,-0.397153914,-0.571996272
4.55616E+11,-0.894485803,2.772584494,0.408715567,-0.077823997,0.121909231,0.097064078,1.06046772,0.336914659,-0.077643879,-0.715649605,-0.397431016,-0.574364185
4.55616E+11,-0.89607964,2.77718805,0.402099826,-0.113924257,0.045132507,1.0031811,1.142597556,0.414682239,-0.069190249,-0.718601644,-0.391351551,-0.574852705
4.55616E+11,-0.899157092,2.786522363,0.38774005,-0.23546569,0.00523766,1.875281215,1.07395041,0.4852902,-0.129703656,-0.724692047,-0.378097206,-0.576076388
4.55616E+11,-0.908935454,2.803273877,0.368106858,0.135132045,-0.495704472,2.702612877,0.858304262,0.437501729,-0.14304626,-0.736005068,-0.359849751,-0.573414922
4.55616E+11,-0.927269371,2.829211805,0.346452819,0.770210683,-1.078494549,3.338492632,0.561778069,0.352197796,-0.110313296,-0.752451897,-0.339563519,-0.564369321
4.55616E+11,-0.95354834,2.861402062,0.323539989,1.207360625,-1.744363904,3.689246178,0.081849545,0.298439384,-0.05112103,-0.773164213,-0.317924857,-0.548762977
4.55616E+11,-0.985875746,2.894499192,0.302110775,1.421241045,-2.356373787,3.432320356,-0.492761701,0.096898228,0.082776181,-0.795995593,-0.297536045,-0.527127385
4.55616E+11,-1.020679403,2.921951024,0.287211444,1.384796977,-2.769823074,2.346512079,-0.93533951,-0.19238323,0.125639841,-0.817544401,-0.283279002,-0.501372278
4.55616E+11,-1.053427539,2.938867429,0.283384003,1.120954156,-2.747936726,0.742574215,-1.251799583,-0.360957682,0.132781163,-0.834458351,-0.279606283,-0.47486797
4.55616E+11,-1.0770273,2.944390892,0.290409378,0.682831347,-1.966607809,-0.678606987,-1.28388226,-0.446779281,0.236740872,-0.843681157,-0.286344498,-0.454102308
4.55616E+11,-1.087400931,2.940701511,0.302845397,0.125417039,-0.866816163,-1.395210624,-1.106562734,-0.444224834,0.26088199,-0.845127881,-0.298237324,-0.443636507
4.55616E+11,-1.084414124,2.930190804,0.314824364,-0.478473693,0.264480829,-1.534596562,-0.89677012,-0.372738838,0.232039258,-0.840580344,-0.309649467,-0.444456846
4.55616E+11,-1.067910298,2.914479935,0.323849748,-1.009350181,1.451732039,-1.490847468,-0.731393874,-0.304340065,0.248834074,-0.830648363,-0.318218529,-0.456902921
4.55616E+11,-1.039301671,2.894355639,0.330809412,-1.399608016,2.437089205,-1.5802356,-0.548902094,-0.246373594,0.245013118,-0.815309942,-0.324808657,-0.479342341
4.55616E+11,-1.00200466,2.870072873,0.337402005,-1.672245622,3.065392256,-1.829968452,-0.299465418,-0.166933879,0.223883346,-0.795047522,-0.331036687,-0.508246124
4.55616E+11,-0.959562452,2.841806261,0.344426914,-1.864083767,3.341139555,-2.139671326,0.055572446,-0.024449019,0.184476346,-0.770843446,-0.337657303,-0.540174007
4.55616E+11,-0.916467344,2.811180975,0.351362446,-1.905747771,3.20575738,-2.277843237,0.445388943,0.139114469,0.108201109,-0.744980037,-0.344177336,-0.571442664
4.55616E+11,-0.878143252,2.782349191,0.356747931,-1.714192748,2.662319899,-2.002538919,0.890184104,0.324845225,0.036164362,-0.721101463,-0.34922877,-0.598374426
4.55616E+11,-0.851179824,2.76106762,0.357928332,-1.338557124,1.692209482,-1.130062103,1.249013186,0.483269185,-0.076155625,-0.704396546,-0.350334615,-0.617325842
4.55616E+11,-0.837224111,2.750881889,0.352874776,-0.972919583,0.878209651,0.021520842,1.453031182,0.533707201,-0.147285387,-0.69701916,-0.34559688,-0.62827307
4.55616E+11,-0.83233074,2.751138543,0.341694946,-0.635262549,0.392912805,1.11028254,1.408252358,0.509431481,-0.148309335,-0.696750283,-0.335084528,-0.634237647
4.55616E+11,-0.836316634,2.763185035,0.325526388,-0.112075813,-0.119464397,2.246626377,1.20822227,0.547300875,-0.127249002,-0.703202188,-0.319807559,-0.635003805
4.55616E+11,-0.8470603,2.785672766,0.30466233,0.300011575,-0.462795854,3.190725565,1.005050898,0.505674779,-0.124348573,-0.714828789,-0.299971074,-0.6316939
4.55616E+11,-0.862863424,2.815171979,0.280783789,0.645558,-0.814870417,3.771225691,0.635962248,0.415765435,-0.08018712,-0.729956388,-0.277108818,-0.62479943
4.55616E+11,-0.883214392,2.84741116,0.256650948,0.879656732,-1.336660385,3.819101334,0.133487701,0.31649521,0.003347441,-0.747470856,-0.253842622,-0.613882124
4.55616E+11,-0.911565278,2.877761796,0.236232548,1.079817533,-2.395700455,3.241363525,-0.353835374,0.174486428,-0.057212211,-0.768509626,-0.234041482,-0.595497727
4.55616E+11,-0.951969431,2.903420795,0.226254792,1.542896867,-3.810227394,1.912889242,-0.748864412,-0.017354611,-0.20113799,-0.793799162,-0.224329352,-0.565295696
4.55616E+11,-1.004340567,2.924923564,0.232601348,2.272982597,-5.032141209,0.221425965,-0.938772619,-0.228505298,-0.236718178,-0.821084559,-0.230509594,-0.522192955
4.55616E+11,-1.066532486,2.945145173,0.253827538,2.906604052,-5.923964977,-1.124031305,-0.991924286,-0.283084273,-0.225113079,-0.847476959,-0.251110673,-0.467681706
4.55616E+11,-1.133463088,2.966216016,0.283286505,3.188293695,-6.127471924,-1.843271494,-0.950016141,-0.286496848,-0.141314045,-0.86977756,-0.279512674,-0.406644344
4.55616E+11,-1.195847558,2.987944034,0.313769405,3.044353962,-5.3233428,-1.979731798,-0.842932105,-0.316613197,0.002504177,-0.885095239,-0.308646202,-0.348344624
4.55616E+11,-1.242440488,3.006940071,0.33977311,2.377087593,-3.557080984,-1.752785206,-0.811261594,-0.352533102,0.195835322,-0.892458498,-0.333273172,-0.304050654
4.55616E+11,-1.263929426,3.016995578,0.359292312,1.174498677,-1.187651992,-1.504852176,-0.820660233,-0.365871698,0.364571869,-0.892413497,-0.351611823,-0.28278476
4.55616E+11,-1.25580658,3.012915578,0.373306294,-0.315583676,1.260209084,-1.450539589,-0.773147702,-0.389149219,0.544115067,-0.885314822,-0.364695996,-0.288469285
4.55616E+11,-1.22136469,2.993633363,0.383562909,-1.677971959,3.150202513,-1.602936149,-0.617412686,-0.356424987,0.623059213,-0.87129581,-0.374226868,-0.317486733
4.55616E+11,-1.169570078,2.962369118,0.391550469,-2.598363161,4.209290028,-1.875662446,-0.356470525,-0.27201876,0.60929656,-0.850911677,-0.381621987,-0.360990256
4.55616E+11,-1.109183447,2.923746831,0.397663939,-3.078706741,4.621754169,-2.085765362,-0.027480392,-0.118975215,0.504037023,-0.825470686,-0.387265623,-0.410637945
4.55616E+11,-1.046418786,2.88187846,0.400362975,-3.317927599,4.612963676,-2.028537035,0.390656263,0.088162675,0.368063182,-0.797180951,-0.389752626,-0.46108076
4.55616E+11,-0.990481123,2.841367848,0.397669274,-3.274473667,3.705539942,-1.593827605,0.897724628,0.345339388,0.199548572,-0.771030903,-0.38727054,-0.505502582
4.55616E+11,-0.95634324,2.810713305,0.390108295,-2.532291889,1.696589231,-0.738424659,1.396766782,0.524911404,-0.146200404,-0.755699277,-0.380288571,-0.533197165
4.55616E+11,-0.950981073,2.797103174,0.38124522,-1.158696294,-0.517774224,0.232155025,1.653141499,0.565649569,-0.422476232,-0.755543292,-0.372076571,-0.539178431
4.55616E+11,-0.974854187,2.804557728,0.373959228,0.607644081,-2.639835835,1.263256907,1.580358386,0.566628337,-0.541681349,-0.770421863,-0.365303874,-0.522497118
4.55616E+11,-1.023382271,2.832248557,0.366569262,2.114064455,-4.183938026,2.229314327,1.342279553,0.618638098,-0.568313062,-0.797144055,-0.358414739,-0.485901445
4.55616E+11,-1.086059372,2.873343113,0.357625419,3.118839502,-4.956297874,2.789002419,0.999898553,0.503447473,-0.483504504,-0.82881701,-0.350050867,-0.436493665
4.55616E+11,-1.153144964,2.920559782,0.346532279,3.585086107,-5.072748661,2.935303926,0.469634116,0.42977193,-0.223888949,-0.859709799,-0.339638263,-0.381503493
4.55616E+11,-1.217532713,2.965917861,0.334387656,3.434791803,-4.851188183,2.590448141,-0.132487908,0.224965096,0.018754974,-0.886280417,-0.328190804,-0.326799423
4.55616E+11,-1.275924854,3.002460804,0.324846857,2.787222385,-4.574793816,1.779491663,-0.574175835,-0.01417985,0.195095226,-0.906796455,-0.31916365,-0.275417507
4.55616E+11,-1.32642076,3.02791381,0.321084771,2.041068316,-4.11035347,0.73352313,-1.210845351,-0.348466426,0.504624963,-0.920700669,-0.315596074,-0.229585275
4.55616E+11,-1.367843302,3.043879423,0.325696678,1.428030014,-3.454763412,-0.388070077,-1.212367654,-0.498375207,0.537798345,-0.927982688,-0.319968909,-0.190966085
4.55616E+11,-1.398640825,3.052375599,0.337897364,0.877187908,-2.571982384,-1.232062817,-1.105007887,-0.508080244,0.548353672,-0.929507434,-0.331504077,-0.161619648
4.55616E+11,-1.41877678,3.054469241,0.354247393,0.315610021,-1.749495625,-1.670427442,-0.926241338,-0.43097797,0.543307424,-0.927091181,-0.346884578,-0.142031789
4.55616E+11,-1.430165228,3.05055978,0.372605984,-0.230592668,-1.133447528,-1.927907109,-0.722298503,-0.388946891,0.583064556,-0.922186971,-0.364043832,-0.130549937
4.55616E+11,-1.43459164,3.040677772,0.392483347,-0.766285658,-0.732801557,-2.146357536,-0.542358875,-0.32709536,0.581956387,-0.915404797,-0.382484108,-0.125459209
4.55616E+11,-1.436926561,3.025251897,0.414424172,-1.209739447,-0.948110521,-2.452819824,-0.3658517,-0.208848312,0.511560857,-0.907158554,-0.402662903,-0.122171797
4.55616E+11,-1.444593832,3.005733897,0.440720399,-1.470932603,-1.811459661,-2.97440362,-0.144496486,-0.129057661,0.417825997,-0.897251546,-0.426591128,-0.113840409
4.55616E+11,-1.459662963,2.983958058,0.471862548,-1.601979375,-2.646668434,-3.412145853,0.07866405,-0.05180157,0.304794341,-0.885228395,-0.454546094,-0.09878543
4.55616E+11,-1.477325616,2.960007294,0.504123734,-1.844618201,-2.922048807,-3.375440836,0.290767014,0.10602621,0.151547879,-0.871775925,-0.483040363,-0.081723653
4.55616E+11,-1.492027782,2.93295984,0.531877911,-2.187506676,-2.735009193,-2.785075903,0.475471139,0.292873561,-0.033715002,-0.859183908,-0.507152736,-0.06781698
4.55616E+11,-1.497836074,2.90250901,0.550122528,-2.55825901,-1.878593087,-1.716557026,0.643558025,0.367441952,-0.172188655,-0.850192547,-0.522791684,-0.062140565
4.55616E+11,-1.487311828,2.868365352,0.554488131,-2.962805986,-0.333025128,-0.289418876,0.76865685,0.461902469,-0.260801941,-0.847209096,-0.526508212,-0.070893601
4.55616E+11,-1.46007883,2.83240349,0.543106351,-3.197787285,1.212044835,1.206602812,0.83464551,0.518735707,-0.428524524,-0.850865602,-0.516797841,-0.094592541
4.55616E+11,-1.423565051,2.800996027,0.517751479,-2.891494036,2.288070202,2.452903032,0.831502855,0.453362644,-0.552184403,-0.85953325,-0.494927585,-0.127472594
4.55616E+11,-1.387608627,2.781539263,0.483356295,-1.996085167,2.724784613,3.303701162,0.754200339,0.372346371,-0.637211621,-0.8706249,-0.464753598,-0.161296055
4.55616E+11,-1.359194248,2.777736679,0.444107561,-0.791097283,2.618798256,3.92804122,0.628657639,0.340922326,-0.729002595,-0.882853806,-0.429652184,-0.189652786
4.55616E+11,-1.337723219,2.789532972,0.402357033,0.415937245,2.673793554,4.422796726,0.379422456,0.302782089,-0.65152061,-0.895261049,-0.391588241,-0.212523594
4.55616E+11,-1.317245629,2.812779261,0.359922141,1.253763795,2.973595619,4.672442913,0.081919327,0.290967852,-0.497331679,-0.906000733,-0.352201372,-0.234769776
4.55616E+11,-1.2981785,2.842138467,0.321744297,1.811279058,2.790661097,4.232974052,-0.453339428,0.289106965,-0.342158377,-0.913649678,-0.316221833,-0.255436838
4.55616E+11,-1.286589214,2.873010124,0.29704699,2.243441105,1.800302505,2.750738859,-0.91149956,0.112384692,-0.177348599,-0.917846143,-0.292697817,-0.268116504
4.55616E+11,-1.289185687,2.89943516,0.292564855,2.267581701,-0.001192229,0.566862285,-1.085306287,-0.170621112,0.002819199,-0.919790208,-0.288409024,-0.266094357
4.55616E+11,-1.313018876,2.915953958,0.309091365,1.840411067,-2.569541693,-1.732950926,-1.126167059,-0.246801689,0.12717405,-0.921135128,-0.304193199,-0.242850929
4.55616E+11,-1.360035632,2.924018102,0.34337846,1.453201294,-4.997181416,-3.559601545,-0.960942686,-0.258880287,0.242157072,-0.92078644,-0.33667025,-0.196991056
4.55616E+11,-1.42340014,2.929938625,0.388010784,1.325322747,-6.417873859,-4.457545757,-0.689689755,-0.289681971,0.288274258,-0.915626407,-0.378347814,-0.135945767
4.55616E+11,-1.496342329,2.93927489,0.435819793,1.407283187,-7.014128208,-4.685351372,-0.514505267,-0.199886084,0.242877573,-0.904012799,-0.422153711,-0.067432016
4.55616E+11,-1.572594212,2.953747773,0.483476233,1.474906087,-6.913227081,-4.718914986,-0.355293989,-0.184874713,0.254923671,-0.885382891,-0.464859784,0.001591818
4.55616E+11,-1.646023543,2.97125503,0.529670464,1.275164723,-6.30280304,-4.632724762,-0.194154575,-0.203918487,0.293082774,-0.860532939,-0.505248964,0.064857885
4.55616E+11,-1.708091213,2.985632771,0.571590885,0.553644538,-5.117669106,-4.14035368,-0.022601059,-0.187972143,0.321705103,-0.833127081,-0.540970743,0.115108259
4.55616E+11,-1.747843805,2.988072321,0.606287676,-0.67341578,-3.363983393,-3.186349869,0.161950469,-0.056140583,0.287655085,-0.808923125,-0.569820702,0.144733235
4.55616E+11,-1.755497019,2.971954808,0.631220937,-2.097421885,-1.127425671,-1.860919595,0.367825568,0.067105353,0.238851562,-0.7935763,-0.590130866,0.148263916
4.55616E+11,-1.728501784,2.93601443,0.643887587,-3.355679989,1.094040871,-0.380133629,0.55020386,0.217054129,0.151036233,-0.789843142,-0.600309134,0.125605613
4.55616E+11,-1.674332722,2.885581877,0.642274118,-4.134344101,2.752408266,1.027420521,0.707458317,0.322269291,0.000632048,-0.796447575,-0.599017978,0.082757235
4.55616E+11,-1.60783016,2.831061959,0.626069315,-4.253201485,3.557658672,2.206358194,0.80842334,0.389476687,-0.197559789,-0.809781373,-0.585964084,0.030003026
4.55616E+11,-1.543574368,2.783209402,0.597006977,-3.736304522,3.671090841,3.141322136,0.818078995,0.388875633,-0.426006466,-0.826715469,-0.562169671,-0.022510376
4.55616E+11,-1.489482366,2.749863453,0.558198066,-2.727514982,3.545010805,3.912425041,0.771036923,0.324672073,-0.639570177,-0.845408261,-0.529658616,-0.068895407
4.55616E+11,-1.445533418,2.733572021,0.511791258,-1.589621544,3.597476006,4.652761459,0.681947231,0.349023223,-0.795003235,-0.865037441,-0.489739776,-0.108927421
4.55616E+11,-1.407472207,2.733102098,0.460710291,-0.500205994,3.790239811,5.137821674,0.507443368,0.422245592,-0.846388996,-0.883816659,-0.444584459,-0.145645916
4.55616E+11,-1.382705886,2.748768165,0.412382287,0.944536686,2.798486948,4.892531872,0.31607163,0.52850908,-0.95155549,-0.900010228,-0.400793046,-0.171308279
4.55616E+11,-1.379965142,2.782494288,0.37549348,2.851423264,1.143831611,3.931027412,0.027024888,0.470384628,-1.116341114,-0.913438439,-0.366731673,-0.176459774
4.55616E+11,-1.398532158,2.83201267,0.355459339,4.576866627,-0.514133871,2.387511492,-0.379428387,0.390196323,-0.925544858,-0.923611164,-0.34802103,-0.160697833
4.55616E+11,-1.438042543,2.890728382,0.353816497,5.625799179,-2.402733326,0.540353417,-0.612249851,0.309538901,-0.708201766,-0.929803371,-0.346480429,-0.124165185
4.55616E+11,-1.497229037,2.952963215,0.367139343,5.963923931,-4.114801407,-1.110145688,-0.709959447,0.139403433,-0.448838085,-0.930833399,-0.35894689,-0.068602696
4.55616E+11,-1.568173783,3.013853175,0.39025622,5.600464821,-5.006258488,-2.379251003,-0.788097441,0.00092404,-0.06854327,-0.924808443,-0.380425394,-0.002425356
4.55616E+11,-1.641174494,3.068993278,0.418610402,4.726581097,-5.122049809,-3.164930344,-0.756453753,-0.103259131,0.300909817,-0.911392927,-0.40649122,0.064248271
4.55616E+11,-1.710965204,3.116092382,0.449347777,3.645734787,-4.95040226,-3.591368914,-0.494593263,-0.234246731,0.815763235,-0.891896605,-0.434378147,0.125841379
4.55616E+11,-1.777541134,-3.128456864,0.481703325,2.582298994,-4.94054842,-3.823193312,-0.269673973,-0.254529864,0.910597801,-0.867334664,-0.46328935,0.181916267
4.55616E+11,-1.844727692,-3.097027927,0.515312143,1.654920101,-5.333536625,-3.938951254,-0.051601827,-0.29707998,0.983254671,-0.837695658,-0.492806494,0.235388502
4.55616E+11,-1.915049454,-3.071742345,0.550254514,0.801804304,-5.879077435,-3.992573261,0.124355465,-0.285186023,0.990292609,-0.802379787,-0.522904217,0.287676752
4.55616E+11,-1.987423201,-3.052358741,0.586324822,-0.027860662,-6.272325039,-3.920826912,0.234153375,-0.217463791,0.856224835,-0.761726022,-0.553303421,0.337088734
4.55616E+11,-2.057923794,-3.039582649,0.622517136,-0.835440338,-6.292083263,-3.618754625,0.329684943,-0.115572214,0.690839112,-0.717914283,-0.583081961,0.380282074
4.55616E+11,-2.119079125,-3.035462749,0.65797973,-1.681548715,-5.663493633,-3.095555067,0.344318926,-0.027320117,0.461723745,-0.675251544,-0.611519575,0.412406504
4.55616E+11,-2.160426544,-3.04314575,0.692206677,-2.576500654,-4.177400112,-2.351831436,0.304262757,0.022728488,0.248517856,-0.639849305,-0.638237536,0.428072125
4.55616E+11,-2.167732563,-3.067826451,0.723897138,-3.585379601,-1.649882913,-1.278070807,0.269729853,0.149568453,0.127921522,-0.619659662,-0.662309527,0.421150744
4.55616E+11,-2.12989242,-3.115971558,0.750156659,-4.696335793,1.267115355,0.123394772,0.394906908,0.328985423,-0.084136561,-0.62018764,-0.681753397,0.388045877
4.55616E+11,-2.046106384,3.093691371,0.765313133,-5.582023144,3.975040913,1.745718479,0.610859931,0.377790928,-0.283766121,-0.641224921,-0.692762852,0.33001551
4.55616E+11,-1.926490167,3.002536587,0.761544489,-5.91518116,6.125732899,3.421551704,0.743209779,0.455253124,-0.40797624,-0.678466737,-0.690040112,0.252046674
4.55616E+11,-1.793555436,2.909822807,0.734384382,-5.631122589,7.149341583,4.889983654,0.801693082,0.49021396,-0.613699734,-0.723903775,-0.670130372,0.163977459
4.55616E+11,-1.669688385,2.832325999,0.685835319,-4.783829212,7.33505249,5.971052647,0.730207443,0.470432103,-0.780706823,-0.770109177,-0.633319676,0.076406926
4.55616E+11,-1.564026804,2.778963631,0.622866639,-3.652291536,7.274691105,6.630663395,0.580150485,0.48328346,-0.881678283,-0.81219089,-0.583365858,-0.005498229
4.55616E+11,-1.476882886,2.750139823,0.552128477,-2.44254303,7.033119202,7.024952412,0.378221571,0.529810667,-0.99683404,-0.847658217,-0.524500608,-0.07984136
4.55616E+11,-1.405279612,2.744301224,0.479990648,-1.093842268,6.801348209,7.080627441,0.125731423,0.501962543,-0.962193608,-0.874876916,-0.461770892,-0.146143779
4.55616E+11,-1.346366543,2.75847973,0.412092307,0.280886948,6.345665932,6.832844734,-0.110371917,0.504668593,-0.897566557,-0.893305421,-0.400527358,-0.203919619
4.55616E+11,-1.300117464,2.788925087,0.353146767,1.625409007,5.540478706,6.224525928,-0.396075845,0.487407863,-0.816574097,-0.904125571,-0.345852077,-0.25088501
4.55616E+11,-1.265386235,2.830621065,0.30844307,2.77771616,4.544219971,5.096671104,-0.635871172,0.387788802,-0.594624519,-0.90871501,-0.303575546,-0.286494225
4.55616E+11,-1.244295915,2.877257905,0.281082189,3.558552027,3.052247286,3.59152174,-0.83144021,0.248327538,-0.389473081,-0.909999609,-0.277395517,-0.308143497
4.55616E+11,-1.239730166,2.922400256,0.27223704,3.864434242,1.208959579,1.770805717,-0.97624743,0.031795695,-0.117919341,-0.910868049,-0.268886775,-0.3130804
4.55616E+11,-1.254259303,2.960070537,0.2813196,3.629195213,-1.026647449,-0.198737726,-1.008760452,-0.148539111,0.186950088,-0.91296196,-0.277623624,-0.299041152
4.55616E+11,-1.292725531,2.98713006,0.306724377,3.066900969,-3.759749889,-2.139208794,-0.948557556,-0.237430155,0.372620881,-0.916707337,-0.301937521,-0.261689484
4.55616E+11,-1.356373156,3.005755302,0.346406363,2.569468498,-6.408975601,-3.794185877,-0.75241977,-0.295215279,0.510279119,-0.919058502,-0.339519829,-0.200144246
4.55616E+11,-1.44425211,3.023342313,0.396738604,2.470104933,-8.680901527,-4.930754662,-0.512844205,-0.280961335,0.512216747,-0.914951205,-0.386412323,-0.116403788
4.55616E+11,-1.554279698,3.047153227,0.453889945,2.613054276,-10.40745831,-5.726084709,-0.309214264,-0.226055339,0.485165268,-0.898625731,-0.43846491,-0.014843618
4.55616E+11,-1.683669147,3.081285372,0.514535785,2.759188414,-11.59841633,-6.348084927,-0.143135861,-0.160716504,0.444339246,-0.86498183,-0.492130786,0.098049685
4.55616E+11,-1.829047467,3.128130295,0.575301818,2.824177027,-12.21245956,-6.81263876,-0.00857409,-0.080805138,0.39569062,-0.811204374,-0.544088066,0.214279458
4.55616E+11,-1.986409467,-3.095241867,0.631940099,2.743914366,-12.3193779,-6.990265369,0.12161503,0.002835936,0.316950947,-0.738192201,-0.590711296,0.325779766
4.55616E+11,-2.148256605,-3.026286954,0.679531534,2.449685574,-11.77419472,-6.662502766,0.225879878,0.047724955,0.183442026,-0.651737392,-0.628428698,0.424635977
4.55616E+11,-2.299796549,-2.958057057,0.714464486,1.866995811,-10.35350323,-5.651650906,0.303858578,0.103394113,0.083511211,-0.563441098,-0.655212939,0.503219724
4.55616E+11,-2.421170419,-2.904945757,0.737682648,0.870630205,-7.915395737,-3.996201754,0.318765134,0.114652447,-0.02108736,-0.488198727,-0.672574818,0.556152046
4.55616E+11,-2.488585569,-2.882066568,0.754756618,-0.676036835,-4.179090023,-1.796915889,0.3321549,0.064933181,-0.087373987,-0.442582756,-0.685111403,0.578569651
4.55616E+11,-2.484890633,-2.900348422,0.77140788,-2.610200644,0.199670747,0.659680486,0.438912243,0.1923998,-0.154058293,-0.43769154,-0.697145283,0.567815602
4.55616E+11,-2.411831319,-2.960208331,0.785090332,-4.077700615,3.954516888,2.96111393,0.601801157,0.355036676,-0.297029018,-0.471567363,-0.706889093,0.527192593
4.55616E+11,-2.292187083,-3.048100191,0.785582871,-4.483093739,6.210556507,4.752051353,0.686682642,0.379554868,-0.45113039,-0.530859888,-0.707237363,0.466907978
4.55616E+11,-2.154854833,3.139688877,0.765757827,-4.064882755,7.239010811,5.993919849,0.665036917,0.36501953,-0.623305798,-0.60136199,-0.693083465,0.397490978
4.55616E+11,-2.020220007,3.053573688,0.724831096,-3.269402027,7.696909428,6.890804768,0.594102859,0.404387802,-0.783315718,-0.674272537,-0.663008988,0.325231612
4.55616E+11,-1.899069813,2.987064124,0.666185812,-2.221966028,7.861279488,7.4870224,0.454148263,0.468577772,-0.937097371,-0.744202554,-0.617991805,0.253473103
4.55616E+11,-1.797629259,2.946567244,0.596253898,-0.87723583,7.653127193,7.624786854,0.19257082,0.459206015,-0.971624076,-0.806248784,-0.561546743,0.186086357
4.55616E+11,-1.716725457,2.932692857,0.523535981,0.532891154,7.241651535,7.234877586,-0.087301157,0.393759698,-0.991703272,-0.856851697,-0.499945611,0.125934839
4.55616E+11,-1.650623794,2.939149682,0.456159049,1.548464179,6.758923054,6.399241447,-0.394811213,0.311871558,-0.799662232,-0.894892156,-0.44050315,0.071589105
4.55616E+11,-1.598687126,2.958770757,0.399040712,2.264908075,5.678105831,5.33365202,-0.589635909,0.274536192,-0.631073415,-0.921075761,-0.388534606,0.025696203
4.55616E+11,-1.566013083,2.989329667,0.354784526,3.113725424,3.909865618,4.054263115,-0.87021172,0.208365485,-0.479309827,-0.937710643,-0.347388327,-0.004485333
4.55616E+11,-1.555647258,3.029731522,0.326769113,3.974692583,1.848463893,2.408717394,-0.937515318,0.002167648,-0.278835475,-0.946975648,-0.320984781,-0.014346898
4.55616E+11,-1.570205908,3.075085427,0.317974627,4.341838837,-0.721624672,0.390519857,-0.972263992,-0.107949898,-0.033756196,-0.949870408,-0.312643349,-0.000560822
4.55616E+11,-1.616293634,3.120219397,0.330260458,4.179214001,-4.017753124,-1.879016399,-0.831891716,-0.225820437,0.226522818,-0.944979012,-0.324289411,0.043023691
4.55616E+11,-1.694642594,-3.118985083,0.360163195,3.75674367,-7.050788403,-3.732547998,-0.528298616,-0.285024196,0.396389246,-0.928671598,-0.352426976,0.115604155
4.55616E+11,-1.799350395,-3.072575559,0.398861174,3.532977104,-9.240896225,-4.774069786,-0.239987284,-0.221768782,0.4405379,-0.897540152,-0.388369173,0.20878461
4.55616E+11,-1.925850726,-3.018468413,0.438183952,3.651040316,-10.79578209,-5.293540001,0.001525067,-0.20506832,0.379462153,-0.849043965,-0.424295694,0.314797491
4.55616E+11,-2.070118045,-2.953992197,0.472746213,3.897864342,-11.78276634,-5.617704868,0.161594063,-0.226872191,0.340273649,-0.781619728,-0.455333024,0.426312655
4.55616E+11,-2.223953635,-2.881183322,0.499372838,3.92976594,-11.93920612,-5.746413231,0.233686596,-0.277106375,0.332251132,-0.697187603,-0.478875071,0.533486784
4.55616E+11,-2.371196119,-2.808653069,0.51636748,3.451858759,-10.81223869,-5.333485126,0.199735716,-0.303943962,0.31707865,-0.60561949,-0.493724495,0.624068201
4.55616E+11,-2.492228336,-2.74780331,0.525562629,2.463387966,-8.398450851,-4.307446957,0.133608341,-0.2382752,0.29736498,-0.523073673,-0.501699805,0.688978434
4.55616E+11,-2.57339719,-2.707394648,0.532227666,1.084699631,-5.257777214,-2.853644133,0.132716492,-0.180534154,0.173967198,-0.463679612,-0.507454157,0.726286113
4.55616E+11,-2.605462835,-2.692645928,0.541102672,-0.500347972,-1.444352031,-1.080173254,0.202517554,-0.175775483,0.087875307,-0.437838584,-0.515081465,0.736877501
4.55616E+11,-2.580406651,-2.706765967,0.554687357,-2.21540761,2.819286108,0.774445415,0.291691184,-0.028406668,0.050394572,-0.45239675,-0.526677549,0.719685972
4.55616E+11,-2.504559695,-2.747393951,0.570560788,-3.528510332,6.171628952,2.301044226,0.349760413,0.037067592,-0.058580179,-0.500593543,-0.540104091,0.6765306
4.55616E+11,-2.391193896,-2.807496055,0.580842509,-4.125644684,8.621817589,3.504067659,0.420283526,0.058127884,-0.160552606,-0.570094287,-0.548728466,0.611465096
4.55616E+11,-2.253235766,-2.878842103,0.578737335,-4.205691814,10.20470715,4.450103283,0.471942902,0.232849896,-0.349134684,-0.649662018,-0.546967328,0.52798295
4.55616E+11,-2.10781,-2.949887194,0.560619635,-3.704824209,10.78413963,5.024163723,0.365636915,0.301089734,-0.507574081,-0.72771275,-0.531711102,0.433263779
4.55616E+11,-1.970973036,-3.007480846,0.529772438,-2.742393732,10.58072948,4.896242619,0.170644745,0.233227,-0.478130639,-0.794744492,-0.505337,0.336178124
4.55616E+11,-1.854806714,-3.045155305,0.496066423,-1.701092482,9.385439873,4.020011902,0.007590474,0.197863117,-0.449877292,-0.844229877,-0.475969791,0.246431842
4.55616E+11,-1.769203212,-3.063402246,0.469595471,-0.676553965,7.046744347,2.551957369,-0.146052554,0.178492993,-0.412206024,-0.874256909,-0.452525586,0.175771087
4.55616E+11,-1.726518818,-3.064137709,0.459237356,0.395531029,3.130477667,0.488945782,-0.22369343,0.17718184,-0.374254227,-0.88554424,-0.443264604,0.139024734
4.55616E+11,-1.740759703,-3.04787719,0.468091179,1.598344445,-1.973774791,-1.596443057,-0.163289875,0.105846703,-0.499706268,-0.879572093,-0.451183617,0.150951385
4.55616E+11,-1.80512564,-3.015359526,0.489202657,2.640191555,-5.720987797,-2.915195704,-0.043805853,0.077313572,-0.420471668,-0.858583689,-0.469922215,0.204956532
4.55616E+11,-1.896094839,-2.970593826,0.512186276,3.272447586,-7.175806522,-3.346761703,0.030367184,0.107470006,-0.256241232,-0.825960457,-0.490084141,0.278580099
4.55616E+11,-1.99233302,-2.919711119,0.529362214,3.519598007,-6.947370052,-3.127284765,0.030354653,0.116646774,-0.148814976,-0.787572086,-0.504982948,0.353160679
4.55616E+11,-2.080290093,-2.86900145,0.538684946,3.445698977,-5.928822517,-2.672463179,0.05295087,0.128303021,-0.106988236,-0.749361992,-0.513007641,0.418664277
4.55616E+11,-2.153125852,-2.82286446,0.540733312,3.207182169,-4.518303871,-2.065808296,0.052043065,0.062158622,-0.095301986,-0.716029286,-0.514764845,0.47150743
4.55616E+11,-2.201770391,-2.785640663,0.536066338,2.755347013,-2.365202188,-1.212225556,0.012439892,-0.013549165,0.001625731,-0.694187343,-0.510758102,0.507178605
4.55616E+11,-2.217405603,-2.762132174,0.527115401,1.927442431,0.310950458,-0.256768346,-0.015711082,-0.008752655,0.102083929,-0.689794302,-0.5030424,0.520703554
4.55616E+11,-2.199728831,-2.753931112,0.517669087,0.864252031,2.741770029,0.500568092,-0.059978243,-0.005418679,0.157941446,-0.702701807,-0.49485597,0.511202216
4.55616E+11,-2.157598164,-2.757220472,0.50979591,0.034002453,4.431742191,0.878623486,-0.100836188,-0.023887478,0.149518102,-0.726831079,-0.487999111,0.483294398
4.55616E+11,-2.100288345,-2.765857562,0.503407035,-0.381594777,5.548130989,0.937206388,-0.147965625,-0.044671647,0.109628044,-0.755995572,-0.482412696,0.442434937
4.55616E+11,-2.037488061,-2.774610621,0.498395192,-0.419821858,5.884034157,0.746391416,-0.154619694,0.00650473,0.060030583,-0.784421444,-0.478016585,0.395200133
4.55616E+11,-1.979979589,-2.778823872,0.494455001,-0.045780674,5.364542484,0.433268398,-0.142954513,0.059085689,-0.00607596,-0.807561219,-0.474552006,0.350207418
4.55616E+11,-1.937213,-2.774228212,0.491248175,0.699708402,4.155369759,0.044392008,-0.131454125,0.098985128,-0.046266641,-0.823212028,-0.471726835,0.315904707
4.55616E+11,-1.91381906,-2.758771885,0.489420901,1.546851158,2.69981885,-0.418701589,-0.117177546,0.098929547,-0.021109687,-0.831186712,-0.470114857,0.296851277
4.55616E+11,-1.908422846,-2.734356598,0.489802368,2.144565344,1.37445426,-0.855898082,-0.122486182,0.100959927,0.050272796,-0.83260721,-0.470451504,0.292302281
4.55616E+11,-1.913897452,-2.705732448,0.492122883,2.31185174,0.702914059,-1.10504806,-0.15427348,0.060281727,0.16335085,-0.829964221,-0.47249791,0.296488017
4.55616E+11,-1.914152885,-2.679757963,0.495765874,1.867294192,1.504762888,-1.103047729,-0.275665522,-0.059328724,0.367455661,-0.828262091,-0.475705445,0.296118557
4.55616E+11,-1.892046475,-2.66582573,0.502745938,0.543165147,3.367878199,-1.053826571,-0.386873066,-0.110421121,0.716878176,-0.831434429,-0.481833518,0.276682615
4.55616E+11,-1.842396376,-2.671012217,0.515641133,-1.268617392,5.09686327,-1.13515532,-0.420352191,-0.049662404,0.974402785,-0.83808589,-0.493092716,0.233391434
4.55616E+11,-1.772368498,-2.695137997,0.533286058,-2.781464338,5.936570644,-1.239158154,-0.371046513,-0.004543095,1.138687134,-0.843705714,-0.50836587,0.172409013
4.55616E+11,-1.693548597,-2.733015986,0.552593414,-3.713552237,5.843732834,-1.458230615,-0.167369321,0.047326837,1.193676949,-0.844761431,-0.524896443,0.104220375
4.55616E+11,-1.614923771,-2.780445095,0.573417495,-4.295078278,5.137339115,-1.840713501,-0.194442034,0.070750102,1.118567109,-0.839234114,-0.542506099,0.037057314
4.55616E+11,-1.537328819,-2.836067347,0.594703244,-4.767227173,4.560843945,-2.181213617,-0.114455566,0.032491975,1.083349943,-0.827850938,-0.560262978,-0.027716456
4.55616E+11,-1.457766038,-2.901526883,0.614095426,-5.391369343,4.123655319,-2.362750769,-0.0852286,0.182176486,1.030201316,-0.812079728,-0.57621944,-0.092182517
4.55616E+11,-1.375476891,-2.97752706,0.628677565,-6.028636932,3.684824705,-2.387414932,0.031326827,0.246431395,0.908697248,-0.79342705,-0.588075697,-0.156972975
4.55616E+11,-1.292436181,-3.06096356,0.636085655,-6.450264931,3.270289183,-2.256979227,0.088999182,0.26809293,0.779374301,-0.773462653,-0.594051182,-0.221039936
4.55616E+11,-1.210544712,3.138000834,0.635151697,-6.42194891,3.173639774,-1.953769445,0.140393406,0.24182868,0.595256805,-0.753308415,-0.593299627,-0.283763856
4.55616E+11,-1.130746946,3.056579004,0.626500365,-6.378278255,3.174514771,-1.710642099,0.064039104,0.261255383,0.669683278,-0.73290813,-0.586313367,-0.345083088
4.55616E+11,-1.054933457,2.978177573,0.612005107,-6.317575932,2.939104319,-1.651419163,0.02672752,0.263734043,0.557393909,-0.711984456,-0.574509799,-0.403753132
4.55616E+11,-0.984872277,2.901831313,0.593850309,-6.295744419,2.609544992,-1.787045479,-0.07693556,0.179246217,0.544737995,-0.690551043,-0.559556246,-0.458296925
4.55616E+11,-0.917567007,2.827061096,0.572795955,-6.305049419,2.634505749,-1.942860603,-0.109572925,0.153144136,0.571296632,-0.667374074,-0.541983843,-0.510749757
4.55616E+11,-0.851307877,2.753712806,0.547476732,-6.452512264,2.748769045,-1.979074836,-0.099000692,0.182735354,0.478788197,-0.642210245,-0.520534396,-0.562681019
4.55616E+11,-0.785437289,2.681781083,0.516136706,-6.739640713,3.028653622,-1.935389161,-0.077502482,0.183144763,0.463800728,-0.615017653,-0.493523806,-0.614969552
4.55616E+11,-0.717302503,2.611510618,0.47800072,-7.085345268,3.607820272,-1.90204823,0.00303293,0.25518617,0.445560992,-0.583675623,-0.460004896,-0.66911751
4.55616E+11,-0.648240663,2.544111727,0.433144146,-7.341961861,4.009925842,-1.842812061,0.140463442,0.339175522,0.241918027,-0.548025668,-0.41972667,-0.723531187
4.55616E+11,-0.583238743,2.482847712,0.383833066,-7.200980663,4.050998688,-1.706761837,0.290777683,0.407115906,0.028907608,-0.510656834,-0.374477357,-0.773948491
4.55616E+11,-0.526949913,2.429467418,0.334731888,-6.626444817,3.587235212,-1.657862425,0.408856064,0.539834917,-0.23190634,-0.474987656,-0.328515947,-0.816372454
4.55616E+11,-0.48479597,2.384580879,0.292151599,-5.446614265,2.548981428,-1.670770049,0.584769368,0.668369174,-0.645640731,-0.446280569,-0.288013309,-0.847279191
4.55616E+11,-0.458119998,2.35102589,0.26280189,-3.573883057,1.498994946,-1.474301457,0.732513189,0.663977325,-0.857907295,-0.427078038,-0.259787261,-0.866091728
4.55616E+11,-0.444002601,2.331165955,0.249489069,-1.541286469,0.731560767,-1.015604138,0.854337573,0.723959684,-0.909236729,-0.416257739,-0.246908873,-0.875080287
4.55616E+11,-0.44012505,2.325289493,0.248065839,-0.044245739,0.097854197,-0.243242458,0.916032016,0.776336968,-0.900155842,-0.413010746,-0.245529458,-0.877004802
4.55616E+11,-0.442270203,2.33235831,0.250833546,0.67605567,-0.021662805,0.766548336,0.853410959,0.777248979,-0.766987324,-0.414598674,-0.248211503,-0.875499249
4.55616E+11,-0.443565829,2.351155772,0.251266201,0.840161979,0.490987509,1.912519097,0.79367727,0.741672575,-0.629148781,-0.415686518,-0.248630598,-0.87486428
4.55616E+11,-0.440778028,2.38028195,0.247680168,0.904192328,1.163397908,2.943058491,0.711353183,0.652290583,-0.550761282,-0.41362372,-0.245155588,-0.876820505
4.55616E+11,-0.435269902,2.417682935,0.242637573,1.167000771,1.501755238,3.651861191,0.587541819,0.529066861,-0.518257499,-0.409303874,-0.240263775,-0.88019526
4.55616E+11,-0.432891096,2.461741652,0.240328905,1.751250744,1.163419843,4.064163208,0.480682701,0.439712763,-0.521225512,-0.407440513,-0.238022089,-0.881667554
4.55616E+11,-0.439870599,2.511186095,0.243799691,2.545120955,0.215193197,4.220611572,0.357046992,0.375592738,-0.497972727,-0.413229853,-0.241391689,-0.878049612
4.55616E+11,-0.461127267,2.562707921,0.254854972,3.359936476,-1.25909996,3.892091274,0.068708278,0.350417435,-0.387235433,-0.430585712,-0.252105057,-0.866625071
4.55616E+11,-0.499130586,2.610782729,0.274059473,3.971613169,-2.954493284,2.958804846,-0.208726376,0.18905288,-0.258741111,-0.46079877,-0.270641625,-0.845232248
4.55616E+11,-0.551627128,2.649190577,0.300478708,4.127042294,-4.576162815,1.466433525,-0.436541259,-0.068295568,0.020163415,-0.50059253,-0.295977503,-0.813513637
4.55616E+11,-0.618245178,2.674236473,0.331921057,3.84060216,-6.31482935,-0.140661746,-0.466769934,-0.200461581,0.178789169,-0.547970057,-0.325859845,-0.770418167
4.55616E+11,-0.697058815,2.687204988,0.367791125,3.494348526,-7.758897781,-1.563910961,-0.485241115,-0.29927358,0.33578825,-0.599033177,-0.359555155,-0.715457439
4.55616E+11,-0.783960009,2.691800256,0.408419733,3.211730719,-8.735692024,-2.676148176,-0.40118134,-0.355922729,0.462806821,-0.648012996,-0.397159547,-0.649879575
4.55616E+11,-0.876346557,2.692419614,0.452440342,2.94035244,-9.313915253,-3.346862078,-0.284021705,-0.324923337,0.457438022,-0.691091239,-0.437161624,-0.575571597
4.55616E+11,-0.969334269,2.69297904,0.497102639,2.661138773,-9.179218292,-3.54921031,-0.190093026,-0.260042369,0.448351502,-0.72471714,-0.476880848,-0.497362733
4.55616E+11,-1.053842878,2.695385905,0.537893173,2.200470448,-7.927223206,-3.229526043,-0.156840906,-0.256913513,0.44000715,-0.746570945,-0.51232779,-0.424443185
4.55616E+11,-1.116494892,2.696750369,0.568363035,1.249504924,-5.538430691,-2.404090405,-0.128581658,-0.267029434,0.483276367,-0.757297873,-0.538253188,-0.369842529
4.55616E+11,-1.147296287,2.690775016,0.583831071,-0.171443373,-2.683663607,-1.337654591,-0.11865627,-0.161864534,0.497041732,-0.760646701,-0.55122447,-0.342882186
4.55616E+11,-1.14230999,2.673647921,0.583400642,-1.69837141,0.31097436,-0.294821769,-0.05097634,-0.114967249,0.485135943,-0.759143293,-0.550865293,-0.346769243
4.55616E+11,-1.104123785,2.64619386,0.568115397,-3.051108122,2.911525488,0.592957318,0.072638407,-0.076488025,0.511582017,-0.752783656,-0.538044453,-0.379242569
4.55616E+11,-1.046267038,2.613875984,0.540668621,-3.89204669,4.374206066,1.257663965,0.174137771,0.019729501,0.405905068,-0.742100418,-0.514709353,-0.429373085
4.55616E+11,-0.983331354,2.583548537,0.50560868,-4.089708805,4.831779957,1.686780095,0.233987898,0.065760948,0.247630402,-0.728204846,-0.484340042,-0.484904587
4.55616E+11,-0.924934515,2.559903321,0.467659377,-3.808012724,4.6579566,1.93724966,0.280919105,0.106956668,0.099698782,-0.712834358,-0.450798213,-0.537259817
4.55616E+11,-0.872689713,2.543514242,0.430419686,-3.352642775,4.500865936,2.000486612,0.266623288,0.107971847,-0.081034444,-0.696188748,-0.417252243,-0.58414197
4.55616E+11,-0.820465281,2.533024737,0.395344778,-2.947551966,4.930626392,1.991675377,0.173026755,0.100977227,-0.167759582,-0.675040901,-0.385126382,-0.629283249
4.55616E+11,-0.764807893,2.527683476,0.36184341,-2.620303631,5.501711845,2.062667608,0.120081648,0.152323455,-0.241541788,-0.647562742,-0.35399887,-0.674794257
4.55616E+11,-0.705366979,2.527798593,0.330050766,-2.253622532,6.096329212,2.162286282,0.095178448,0.191263303,-0.327297688,-0.613321126,-0.324091047,-0.720279217
4.55616E+11,-0.642314033,2.532863077,0.301447517,-1.818793416,6.541005135,2.150147438,0.149185821,0.215329275,-0.343991041,-0.572037399,-0.296902776,-0.764605761
4.55616E+11,-0.58026078,2.541890997,0.277716754,-1.316258788,6.366446495,2.036204815,0.198240817,0.222204432,-0.343399346,-0.527235568,-0.274160594,-0.804275215
4.55616E+11,-0.525651273,2.553400462,0.260133963,-0.777828276,5.50987339,1.799396992,0.245697677,0.217766047,-0.293499589,-0.484894454,-0.257210016,-0.835894942
4.55616E+11,-0.484090296,2.565096371,0.249343582,-0.274158567,4.038983822,1.40343976,0.275229335,0.220187083,-0.270584494,-0.451010585,-0.246767893,-0.857726693
4.55616E+11,-0.46062675,2.574936032,0.245385577,0.199901357,2.069694281,0.900246441,0.303843915,0.200724557,-0.257021278,-0.431193769,-0.242930368,-0.868940055
4.55616E+11,-0.458282515,2.58217324,0.248297124,0.695992529,-0.149173513,0.367873341,0.309974879,0.175334349,-0.247587129,-0.428840846,-0.245753661,-0.869310439
4.55616E+11,-0.47628386,2.58715328,0.257913083,1.198955536,-2.142771959,-0.118255809,0.287172109,0.123669788,-0.205676824,-0.443315297,-0.255063206,-0.859310389
4.55616E+11,-0.509868024,2.590768988,0.273473189,1.677268028,-3.678498268,-0.521416724,0.222641096,0.089855619,-0.153949544,-0.469925016,-0.270077169,-0.840374172
4.55616E+11,-0.557210722,2.594129227,0.29469272,2.123098373,-5.015625,-0.892014086,0.129360989,0.06347134,-0.116458364,-0.506024182,-0.290445834,-0.81214577
4.55616E+11,-0.618665615,2.597897941,0.321723687,2.555998325,-6.364610672,-1.307348967,0.049765248,0.024133796,-0.078677312,-0.550192475,-0.316202283,-0.772854686
4.55616E+11,-0.693075232,2.602681784,0.354775021,2.999764919,-7.540668011,-1.775513291,-0.025729565,-0.05729894,-0.014248822,-0.599117875,-0.347379416,-0.721377373
4.55616E+11,-0.773180772,2.608901305,0.392182693,3.177596807,-7.743285656,-2.155200958,-0.128231153,-0.165111199,0.153634325,-0.645389438,-0.382206291,-0.661355257
4.55616E+11,-0.846570689,2.61500855,0.428976149,2.814888477,-6.788834572,-2.296849012,-0.27205506,-0.217666015,0.263670921,-0.681146204,-0.415939927,-0.60252285
4.55616E+11,-0.901752497,2.61820359,0.460213621,1.990041614,-4.819300652,-2.156501293,-0.375810593,-0.270032853,0.331401199,-0.702802658,-0.44413951,-0.555705369
4.55616E+11,-0.927950879,2.61557687,0.482003119,0.836601973,-1.993738651,-1.750047565,-0.422999203,-0.29251799,0.41513291,-0.709202945,-0.463555008,-0.531176031
4.55616E+11,-0.920101442,2.605632769,0.491366201,-0.469860196,1.068022251,-1.101703644,-0.347331226,-0.275010526,0.462983161,-0.701527417,-0.471830904,-0.53407383
4.55616E+11,-0.884589284,2.589363856,0.487254306,-1.659082294,3.242507458,-0.400858968,-0.211279258,-0.189635411,0.429162383,-0.683618188,-0.468201488,-0.55986917
4.55616E+11,-0.834362507,2.569471064,0.473215469,-2.412691355,4.325273991,-0.022247497,-0.161363482,-0.191115096,0.396150082,-0.659452558,-0.455750763,-0.597840786
4.55616E+11,-0.777454493,2.547260223,0.454603305,-2.79975605,4.761826992,-0.065178186,-0.098078839,-0.228115126,0.396801114,-0.630223155,-0.439105958,-0.640316129
4.55616E+11,-0.719183793,2.522665526,0.434505744,-3.038303614,4.748795986,-0.334405929,-0.029259134,-0.218411654,0.349625111,-0.597556651,-0.420962125,-0.682434559
4.55616E+11,-0.660832148,2.49544117,0.413254303,-3.274732351,4.70169878,-0.632342577,0.064364083,-0.146931142,0.326202154,-0.562105775,-0.401591808,-0.723022223
4.55616E+11,-0.604532699,2.467218806,0.390247646,-3.406278133,4.426054001,-0.746372759,0.229654118,0.000794041,0.223005056,-0.525644124,-0.380417466,-0.760907888
4.55616E+11,-0.555993384,2.441886897,0.366550315,-3.187125683,3.708037138,-0.624248445,0.507755935,0.160933062,0.030699039,-0.492725998,-0.358397037,-0.792951822
4.55616E+11,-0.517549006,2.423088194,0.344162749,-2.574081421,2.750768185,-0.205899566,0.766092539,0.250158876,-0.16805701,-0.465738535,-0.337408632,-0.818072736
4.55616E+11,-0.493634861,2.415431459,0.325152149,-1.827386975,1.953829885,0.465527534,0.891385078,0.368143767,-0.269987702,-0.449002266,-0.319452971,-0.834473968
4.55616E+11,-0.479478376,2.418833607,0.308771921,-1.120386839,1.39397192,1.25263834,0.919007063,0.470636904,-0.352615148,-0.439499617,-0.303888857,-0.845276058
4.55616E+11,-0.473346053,2.434115473,0.295037907,-0.354716301,0.958867133,2.164036989,0.892742991,0.486531138,-0.396441668,-0.436169475,-0.290776134,-0.851589918
4.55616E+11,-0.472833823,2.461888513,0.283512583,0.339720458,0.866746604,3.124739408,0.794911742,0.431554675,-0.402370393,-0.437230438,-0.279729724,-0.854740202
4.55616E+11,-0.470381396,2.498312263,0.27103789,0.473131508,1.388572574,3.84401226,0.522572339,0.371582896,-0.21634151,-0.436680615,-0.267731577,-0.858853817
4.55616E+11,-0.463111002,2.538306084,0.254766263,0.216794461,1.8746773,4.266802311,0.257692426,0.297826111,-0.136835337,-0.432314008,-0.252019227,-0.865789175
4.55616E+11,-0.452306218,2.579559241,0.235819177,0.030436253,2.132921457,4.451105595,-0.014385915,0.203640789,-0.105798692,-0.424945146,-0.233639568,-0.874547958
4.55616E+11,-0.437413829,2.618846869,0.217160611,-0.043526974,2.477894545,4.132335186,-0.389848113,0.090824008,-0.130165368,-0.413649201,-0.215457797,-0.884574652
4.55616E+11,-0.417141032,2.650604179,0.202963449,0.02032573,2.701980352,3.121141911,-0.799395978,-0.096660204,-0.04108458,-0.396832019,-0.201572835,-0.895484626
4.55616E+11,-0.396276002,2.670229324,0.196000292,0.157513633,2.37259388,1.654791713,-1.072988629,-0.271362454,-0.076023556,-0.378595293,-0.194747776,-0.9048419
4.55616E+11,-0.377190224,2.675333411,0.19597972,0.18090333,1.869538903,0.076188304,-1.21419549,-0.430257142,0.009043652,-0.361259252,-0.1947276,-0.911906183
4.55616E+11,-0.36139987,2.666908369,0.199594816,-0.024925519,1.268301964,-1.184624076,-1.186425209,-0.51533556,0.099952944,-0.346564323,-0.198272213,-0.916832209
4.55616E+11,-0.346696658,2.648827677,0.202925554,-0.402438223,1.1100986,-1.932063699,-1.079914212,-0.548143864,0.157698303,-0.332820714,-0.201535717,-0.921202302
4.55616E+11,-0.327760381,2.624938529,0.203257389,-0.863316953,1.543344378,-2.294847488,-0.960078955,-0.530759513,0.23469463,-0.315296412,-0.201860726,-0.927275836
4.55616E+11,-0.301800746,2.596587824,0.199060726,-1.392767191,2.196482182,-2.585558653,-0.822383881,-0.500127256,0.294529587,-0.291370362,-0.197748691,-0.935948074
4.55616E+11,-0.269050671,2.563650317,0.189928435,-1.909387589,2.762398005,-2.931519747,-0.635753155,-0.433602124,0.354510009,-0.261036396,-0.188788623,-0.946688354
4.55616E+11,-0.233863818,2.526256948,0.176831715,-2.244483471,2.783764839,-3.339281321,-0.394815922,-0.298087448,0.398648769,-0.228124157,-0.17591159,-0.957608759
4.55616E+11,-0.204470824,2.485048266,0.162956636,-2.200140476,2.027501583,-3.771342278,-0.079181992,-0.042277172,0.316446722,-0.200359032,-0.162236378,-0.966196477
4.55616E+11,-0.187178286,2.442214832,0.152198099,-1.705422878,0.662431479,-3.945682049,0.364401788,0.202483982,0.13760297,-0.183936089,-0.151611179,-0.971175373
4.55616E+11,-0.1886493,2.404183371,0.149917759,-0.623957872,-1.179386139,-3.497132301,0.746845484,0.398563355,-0.045040332,-0.185428843,-0.149356812,-0.971240819
4.55616E+11,-0.207536954,2.377882453,0.157714058,0.515342057,-2.575107574,-2.387552023,1.172410846,0.558077276,-0.1730382,-0.203493029,-0.157061055,-0.96639663
4.55616E+11,-0.234699167,2.366964292,0.169090739,0.929759145,-2.916756153,-0.924957871,1.214615941,0.653179944,-0.14837265,-0.229233816,-0.16828613,-0.958713531
4.55616E+11,-0.264125641,2.371703711,0.177086313,0.880277872,-2.855442047,0.662519157,1.12864089,0.717009962,-0.176057115,-0.256982565,-0.176162198,-0.950224638
4.55616E+11,-0.29630597,2.392051208,0.180928864,0.958351851,-2.845098257,2.169783354,0.928794026,0.640758812,-0.214799196,-0.287223011,-0.179943353,-0.940809906
4.55616E+11,-0.330023985,2.424931808,0.182812584,1.262074471,-2.753883123,3.262232065,0.667557776,0.578219354,-0.212613195,-0.318665564,-0.181795999,-0.930270076
4.55616E+11,-0.365939319,2.4668244,0.184417736,1.657389641,-2.868663549,3.968838453,0.387281448,0.472314596,-0.251220196,-0.351758987,-0.183374166,-0.917953968
4.55616E+11,-0.404326085,2.514372041,0.186765536,2.071176291,-2.974025249,4.293420792,0.030051695,0.329312623,-0.15429835,-0.386558056,-0.185681656,-0.903379858
4.55616E+11,-0.443470511,2.563255582,0.189992774,2.312495232,-3.015284061,4.190461636,-0.22937046,0.197457761,-0.104273006,-0.421355873,-0.188851804,-0.88701421
4.55616E+11,-0.483738657,2.609413474,0.194154822,2.42057085,-3.175868511,3.718019009,-0.573889375,0.073598318,-0.109855928,-0.456353545,-0.1929373,-0.868629158
4.55616E+11,-0.522918395,2.648353243,0.201966129,2.565756559,-3.140788078,2.655962944,-0.904233992,-0.154186219,-0.035994653,-0.48925966,-0.200595886,-0.848755717
4.55616E+11,-0.559516252,2.6751058,0.217464466,2.695527315,-3.107640743,1.006100774,-1.049366951,-0.402913094,0.051565349,-0.518275261,-0.215754509,-0.827551067
4.55616E+11,-0.594840768,2.687551959,0.241140436,2.595001221,-3.311837912,-0.673352003,-1.035258889,-0.539220154,0.145261884,-0.544163108,-0.238810226,-0.804273725
4.55616E+11,-0.630397204,2.687770491,0.268842873,2.143911362,-3.643496513,-1.820147991,-0.878165483,-0.485558867,0.253508031,-0.568291426,-0.265616059,-0.778776586
4.55616E+11,-0.668535129,2.679286517,0.296822904,1.60845983,-4.188245296,-2.482769728,-0.705439985,-0.403317243,0.295595944,-0.592732012,-0.292483538,-0.75041467
4.55616E+11,-0.707935618,2.665370466,0.325141661,1.267508864,-4.353858471,-2.9176898,-0.567748308,-0.450805396,0.371940047,-0.616196394,-0.319443017,-0.719901443
4.55616E+11,-0.740385263,2.647211895,0.352653471,0.77636224,-3.612303257,-3.14369297,-0.473706871,-0.480553806,0.475387037,-0.633058846,-0.345389187,-0.692779005
4.55616E+11,-0.759001458,2.623614681,0.374979192,-0.11665988,-2.370587111,-3.106582165,-0.3625516,-0.390491217,0.47573939,-0.640378118,-0.366253167,-0.675110757
4.55616E+11,-0.760939172,2.594127591,0.388428204,-1.177443027,-0.929840267,-2.819960117,-0.20591639,-0.270786703,0.463911265,-0.638230324,-0.378734171,-0.670240581
4.55616E+11,-0.747585469,2.560503201,0.391771044,-2.102832794,0.35454756,-2.373205185,-0.001554089,-0.136759326,0.403418064,-0.628359258,-0.381825864,-0.677771091
4.55616E+11,-0.723639723,2.525622711,0.385647141,-2.768984795,1.278704762,-1.843923926,0.212730795,-0.0151223,0.295847386,-0.613487661,-0.376158834,-0.69436121
4.55616E+11,-0.694077857,2.492739658,0.371468223,-3.135524273,1.859690666,-1.235479832,0.406671166,0.133659571,0.123079211,-0.596047997,-0.362983912,-0.716218829
4.55616E+11,-0.663922367,2.466002934,0.351119386,-3.124443769,2.120232105,-0.463871479,0.576203823,0.266464978,-0.074786186,-0.578614712,-0.343949109,-0.73952961
4.55616E+11,-0.623860683,2.44542745,0.322099514,-2.766528606,2.273761749,0.436172009,0.669883788,0.366806,-0.227806464,-0.554130614,-0.316558808,-0.769889474
4.55616E+11,-0.59737471,2.441248317,0.295980657,-2.237535477,2.648596048,1.423657656,0.737157941,0.391485751,-0.346070021,-0.538015485,-0.291678011,-0.790862381
4.55616E+11,-0.567011323,2.449114044,0.26740845,-1.902489424,3.454306364,2.462652445,0.734652877,0.445598841,-0.306555927,-0.518023849,-0.264232874,-0.813530743
4.55616E+11,-0.532549178,2.46791972,0.23640478,-1.607598901,4.027023792,3.386170387,0.658007443,0.54307735,-0.32449472,-0.49360925,-0.234208927,-0.83755362
4.55616E+11,-0.497718497,2.495462343,0.206831694,-1.115790963,4.055107117,3.884037733,0.557136059,0.500098944,-0.323052227,-0.467246532,-0.205360159,-0.85994643
4.55616E+11,-0.466780937,2.527821345,0.182370349,-0.557102084,3.562656641,3.937334776,0.422501117,0.420100123,-0.293769628,-0.442551166,-0.181361124,-0.878212154
4.55616E+11,-0.443675855,2.56188861,0.164224164,-0.023519443,2.639352798,3.754086018,0.232767195,0.345325977,-0.265878111,-0.423486799,-0.163486987,-0.891028047
4.55616E+11,-0.431635312,2.595800136,0.152614191,0.49348557,1.412961483,3.436303616,0.057720218,0.278182119,-0.242319286,-0.41349414,-0.152022451,-0.89772588
4.55616E+11,-0.433050358,2.627947545,0.147885917,1.036005855,-0.027365116,2.945194483,-0.12543577,0.187462807,-0.239775687,-0.415061057,-0.14734745,-0.897782266
4.55616E+11,-0.447677578,2.655964477,0.150618424,1.546058536,-1.369909525,2.175422192,-0.360968083,0.040872946,-0.195741355,-0.427972347,-0.150049582,-0.891249001
4.55616E+11,-0.473174928,2.676572626,0.160632434,1.859142184,-2.499384642,1.089749217,-0.574093103,-0.108261205,-0.13608852,-0.449847937,-0.159942538,-0.878666699
4.55616E+11,-0.508005368,2.686511541,0.177582631,1.979136348,-3.596252203,-0.299554467,-0.738224924,-0.230407983,-0.063852035,-0.478785604,-0.176650733,-0.859976113
4.55616E+11,-0.552141637,2.684890176,0.202562648,2.100003242,-4.712416649,-1.746414185,-0.771551549,-0.329505175,-0.030231718,-0.513787806,-0.201180235,-0.833995581
4.55616E+11,-0.602157303,2.674753173,0.234024227,2.066669226,-5.313569546,-2.760182858,-0.676038623,-0.418954462,0.038223356,-0.550981641,-0.231893927,-0.801651061
4.55616E+11,-0.650235389,2.659800151,0.267011921,1.713763952,-5.078835011,-3.174941301,-0.567125261,-0.400501996,0.17351301,-0.583921492,-0.263850421,-0.767736018
4.55616E+11,-0.691213234,2.641653161,0.296821874,1.072590351,-4.408089638,-3.205078602,-0.456001252,-0.358014911,0.258631647,-0.609596312,-0.292482525,-0.736781061
4.55616E+11,-0.720996686,2.620036852,0.320311288,0.231898248,-3.348471403,-3.03526783,-0.320082426,-0.318820208,0.303473234,-0.626557589,-0.314862043,-0.712942839
4.55616E+11,-0.737754195,2.594923254,0.336595443,-0.618452072,-2.137783051,-2.76666832,-0.184529275,-0.262818366,0.320069224,-0.634882987,-0.330275506,-0.698456645
4.55616E+11,-0.741978617,2.566966184,0.345746416,-1.28823638,-1.078469992,-2.467168093,-0.026503116,-0.173582673,0.278197736,-0.635758877,-0.338899016,-0.693511486
4.55616E+11,-0.737690592,2.537977926,0.349213518,-1.645727158,-0.441132814,-2.169382811,0.162350118,-0.056644809,0.197020724,-0.631985128,-0.342158914,-0.695357502
4.55616E+11,-0.733282494,2.511669647,0.350197319,-1.517148018,-0.506564498,-1.797195196,0.342707962,0.121678129,-0.016576115,-0.628688216,-0.343083143,-0.697886169
4.55616E+11,-0.726179948,2.490159646,0.349391715,-0.947133005,-0.627933562,-1.295907855,0.501279294,0.23815459,-0.275349766,-0.623898923,-0.342326343,-0.702540219
4.55616E+11,-0.729445027,2.481493419,0.351851933,-0.153046861,-0.609144807,-0.576930225,0.623093307,0.352479905,-0.422246665,-0.625626266,-0.344636887,-0.699869394
4.55616E+11,-0.735223942,2.485073395,0.354436574,0.589918315,-0.377578616,0.301578134,0.620469987,0.494019419,-0.532875299,-0.629060686,-0.347062021,-0.69557929
4.55616E+11,-0.740572338,2.500091968,0.354872465,1.08528614,0.131927833,1.254609227,0.598917365,0.505673885,-0.506347358,-0.632669806,-0.34747079,-0.692093194
4.55616E+11,-0.741731608,2.524891494,0.35075155,1.306037664,0.976509809,2.23618865,0.486499697,0.48360309,-0.401188254,-0.634433627,-0.3436037,-0.692409158
4.55616E+11,-0.735169632,2.556879461,0.340966364,1.285054922,1.97944653,3.077145815,0.334570229,0.423219383,-0.298250884,-0.632101357,-0.334397972,-0.699017763
4.55616E+11,-0.721058905,2.593336247,0.326407592,1.179455876,2.801933765,3.668140888,0.139284879,0.311807543,-0.221565038,-0.625323057,-0.320642382,-0.711448848
4.55616E+11,-0.700448822,2.632199429,0.30960479,1.125307441,3.404727697,3.931057215,-0.190116733,0.192301258,-0.093377404,-0.613914669,-0.304682255,-0.728201568
4.55616E+11,-0.675721997,2.6702537,0.294161495,1.112784028,3.629022598,3.68823123,-0.518867612,0.012380091,0.038228806,-0.598594546,-0.289937466,-0.746740162
4.55616E+11,-0.65022296,2.703124773,0.283669801,1.112163544,3.39923954,2.899431229,-0.782065094,-0.211040363,0.160302535,-0.58117038,-0.279880673,-0.764138579
4.55616E+11,-0.626817929,2.726795435,0.279829528,1.009942055,2.841044903,1.750227451,-0.982037127,-0.397880465,0.274137914,-0.563754499,-0.276191801,-0.778395116
4.55616E+11,-0.605664282,2.737706587,0.281454477,0.620556414,2.288069963,0.423626423,-1.086454391,-0.537417114,0.425273597,-0.546907425,-0.277753174,-0.78977555
4.55616E+11,-0.584984192,2.734051705,0.285325735,-0.055162422,1.87184751,-0.793778777,-1.072143674,-0.61519742,0.483622521,-0.529861331,-0.281470031,-0.800013483
4.55616E+11,-0.562487335,2.718071182,0.288059185,-0.776095092,1.812542439,-1.609921575,-1.010974288,-0.609188139,0.512950182,-0.511318743,-0.28409192,-0.811076403
4.55616E+11,-0.535205577,2.694266303,0.287791737,-1.344334602,2.146683455,-2.015853643,-0.87913692,-0.556054056,0.525608778,-0.489042372,-0.283835471,-0.824787855
4.55616E+11,-0.502399548,2.665637305,0.28381179,-1.823745131,2.585667133,-2.234574318,-0.734602511,-0.481533945,0.487730414,-0.462266386,-0.280016959,-0.841368079
4.55616E+11,-0.463678808,2.633235923,0.275804816,-2.258677721,3.106540918,-2.440861702,-0.591176271,-0.392565042,0.463606924,-0.430338621,-0.272321433,-0.860610068
4.55616E+11,-0.420008724,2.596794977,0.26451259,-2.594616175,3.444518805,-2.7898314,-0.389464289,-0.235738277,0.418605536,-0.393586248,-0.261438847,-0.881328285
4.55616E+11,-0.377421484,2.555892502,0.252387882,-2.630740166,3.065833092,-3.304961443,-0.09168271,-0.026146747,0.236561909,-0.356849402,-0.249716893,-0.900166631
4.55616E+11,-0.342842833,2.51207957,0.243236467,-2.218585253,2.129753351,-3.751358986,0.206107348,0.15470922,0.0592211,-0.326270312,-0.240845084,-0.914079487
4.55616E+11,-0.319047039,2.468616931,0.240171582,-1.448046207,1.071133375,-3.897508621,0.453737229,0.332946807,-0.039343718,-0.30465886,-0.237869292,-0.922280431
4.55616E+11,-0.308124696,2.430103536,0.244238254,-0.535404325,-0.136446685,-3.569901466,0.732732892,0.48647669,-0.115278229,-0.294271618,-0.241817251,-0.924623489
4.55616E+11,-0.310868471,2.400359793,0.253800316,0.201124534,-1.277190089,-2.822726488,0.995290101,0.577881813,-0.168778315,-0.296086609,-0.251084328,-0.92156899
4.55616E+11,-0.324666302,2.382131631,0.265194408,0.610849202,-1.986412168,-1.742021441,1.064814329,0.641766071,-0.16951184,-0.307841063,-0.262096882,-0.914625108
4.55616E+11,-0.344574255,2.376409407,0.274106767,0.658566296,-2.154297352,-0.495522857,1.064656615,0.697048247,-0.176407859,-0.32518518,-0.270687163,-0.90608114
4.55616E+11,-0.366963584,2.383043444,0.278870193,0.689091384,-2.004815102,0.725526392,0.9543733,0.716920078,-0.206414774,-0.344922006,-0.275269657,-0.897360265
4.55616E+11,-0.390165439,2.400477359,0.281341673,0.916229725,-1.795255065,1.686601043,0.872086465,0.657481849,-0.228840128,-0.365387857,-0.277644813,-0.888484716
4.55616E+11,-0.415982895,2.426651234,0.283463853,1.279530644,-1.899512768,2.383661509,0.73406285,0.598957837,-0.266422719,-0.387962967,-0.279682934,-0.878215313
4.55616E+11,-0.447313923,2.45961559,0.287012543,1.774766684,-2.330348492,2.813557625,0.527247787,0.53028065,-0.261047453,-0.414851546,-0.283088237,-0.864730716
4.55616E+11,-0.486274605,2.497518888,0.293128761,2.304762602,-2.975342989,2.995420218,0.296125531,0.411492258,-0.225606576,-0.447401166,-0.288948923,-0.846369147
4.55616E+11,-0.532287781,2.53745943,0.301028934,2.601330757,-3.577085257,2.906804562,0.016132724,0.235559419,-0.122807637,-0.484684348,-0.296503037,-0.822901607
4.55616E+11,-0.5837555,2.574930531,0.309893386,2.642615318,-4.16583395,2.398497343,-0.419062287,0.059107494,-0.017206151,-0.52490741,-0.304957092,-0.794652998
4.55616E+11,-0.638608899,2.604552237,0.322931557,2.697601795,-4.668599606,1.217754722,-0.867471993,-0.191380084,0.038841888,-0.565267265,-0.317347944,-0.761421859
4.55616E+11,-0.692212541,2.622651514,0.345010799,2.811842442,-4.773552895,-0.442316622,-1.128219724,-0.511631429,0.142897248,-0.600631595,-0.338206828,-0.724470735
4.55616E+11,-0.742441617,2.630076063,0.375977597,2.75126791,-4.742008686,-1.813193917,-1.144345045,-0.676595449,0.224506527,-0.628863513,-0.367182016,-0.685352445
4.55616E+11,-0.788072393,2.630777805,0.410397019,2.432248354,-4.441038132,-2.45229125,-1.024652123,-0.652357161,0.314836502,-0.650122046,-0.398973405,-0.646654129
4.55616E+11,-0.826988627,2.627291758,0.443419146,1.902543664,-3.873541355,-2.629653454,-0.838370264,-0.624466896,0.405558378,-0.664727271,-0.429030448,-0.611613035
4.55616E+11,-0.855954555,2.61885658,0.471903269,1.120525122,-3.0500319,-2.615056038,-0.627223492,-0.598319888,0.46480602,-0.67265749,-0.454582363,-0.583855093
4.55616E+11,-0.871980437,2.603625047,0.494045978,0.164664045,-2.044018269,-2.532251596,-0.482088536,-0.520848989,0.509500563,-0.674054623,-0.474191934,-0.566385329
4.55616E+11,-0.870745685,2.580220625,0.508216296,-0.959354043,-0.613289237,-2.348913908,-0.332721502,-0.445524424,0.53690666,-0.668148279,-0.486619741,-0.562831342
4.55616E+11,-0.849262152,2.546768318,0.511999536,-2.304748535,0.835116506,-2.143683672,-0.106942862,-0.265709132,0.56605351,-0.654516518,-0.489921361,-0.575834394
4.55616E+11,-0.816673932,2.505130985,0.506981793,-3.184025049,1.259432435,-2.052932024,0.195036724,0.094900645,0.339374661,-0.63719064,-0.485540897,-0.598529935
4.55616E+11,-0.788264196,2.464502321,0.49980385,-2.907823563,0.68918395,-1.912206531,0.502102196,0.340077966,-0.090383433,-0.62238723,-0.479253381,-0.618829846
4.55616E+11,-0.775327825,2.435270369,0.497628326,-1.578285098,-0.383704543,-1.564813137,0.751685441,0.527742624,-0.528189301,-0.615058243,-0.477342844,-0.627572417
4.55616E+11,-0.781001246,2.423772717,0.503428912,0.128781378,-1.323330522,-0.958538771,0.878596842,0.668268681,-0.831395328,-0.61664921,-0.482431859,-0.622095883
4.55616E+11,-0.798183139,2.429917069,0.513505092,1.336598158,-1.342582941,-0.111489184,0.885269344,0.728095472,-0.917100132,-0.623733699,-0.491233289,-0.607985318
4.55616E+11,-0.81389961,2.448652291,0.519828835,1.643412113,-0.355301112,0.945171893,0.747609377,0.69166261,-0.51350385,-0.630940676,-0.496731579,-0.595962703
4.55616E+11,-0.82175924,2.476587191,0.517286903,1.577339649,0.906705678,2.144990206,0.648887455,0.636674702,-0.377486557,-0.636527836,-0.494523823,-0.591843247
4.55616E+11,-0.823006981,2.512782413,0.506131241,1.551096916,1.86573112,3.20798564,0.465520203,0.508814514,-0.253762782,-0.641270936,-0.48479715,-0.594763219
4.55616E+11,-0.819673936,2.555582062,0.489039311,1.604450941,2.524556637,3.9846766,0.199859053,0.366582841,-0.145307437,-0.645247877,-0.469778031,-0.602464795
4.55616E+11,-0.813669306,2.60259028,0.468865314,1.677759171,2.797880173,4.40186882,-0.126877442,0.28309688,-0.062487513,-0.648375869,-0.451874346,-0.612713933
4.55616E+11,-0.808951478,2.650394047,0.449829441,1.843186498,2.462144375,4.237061024,-0.578365326,0.083707213,0.115823731,-0.651584625,-0.43481195,-0.621591568
4.55616E+11,-0.809831833,2.693127998,0.438204395,2.028259993,1.45569694,3.186575651,-0.875853062,-0.216738045,0.294795334,-0.65574789,-0.424314201,-0.624461472
4.55616E+11,-0.819106018,2.724454917,0.437849269,2.016281128,0.029651294,1.546843171,-1.015945435,-0.487445384,0.438951641,-0.661621034,-0.423992604,-0.618456066
4.55616E+11,-0.836631048,2.741919752,0.447505639,1.722336888,-1.322359324,-0.008054676,-1.032480478,-0.598577619,0.579611957,-0.669286549,-0.432718158,-0.603995502
4.55616E+11,-0.857313733,2.74688111,0.462259431,1.142904282,-1.91397965,-1.018218756,-0.94962436,-0.652859628,0.733746767,-0.676733673,-0.445971549,-0.58578229
4.55616E+11,-0.869650881,2.741390761,0.475413448,0.237412184,-1.259671092,-1.369780302,-0.835509956,-0.638164878,0.867881596,-0.679367363,-0.457706094,-0.573554814
4.55616E+11,-0.865973877,2.726280093,0.481907061,-0.896287262,0.002775482,-1.339539289,-0.725094616,-0.559754014,0.861312091,-0.674975574,-0.463469893,-0.574111164
4.55616E+11,-0.845214391,2.70219087,0.480120182,-1.990298867,1.261261463,-1.24538219,-0.604886115,-0.49854818,0.823517263,-0.663531244,-0.46188578,-0.58854717
4.55616E+11,-0.810535869,2.670649669,0.471514593,-2.846569061,2.249040365,-1.281220555,-0.447205693,-0.439455897,0.783959389,-0.645582974,-0.45423612,-0.613915443
4.55616E+11,-0.765909564,2.632366149,0.45775965,-3.569344521,2.873343468,-1.503033161,-0.213471547,-0.30625993,0.668031394,-0.621825099,-0.441939533,-0.646547019
4.55616E+11,-0.716673683,2.588109203,0.43999394,-4.117311001,2.993298531,-1.828357697,0.024140054,-0.092025615,0.494237572,-0.594315231,-0.425933987,-0.682180047
4.55616E+11,-0.669651837,2.540015466,0.420740791,-4.282592297,2.550994396,-2.235185623,0.277439773,0.150105447,0.248465627,-0.566578567,-0.408436745,-0.715659261
4.55616E+11,-0.629932607,2.491750943,0.402358306,-4.057535172,1.867004156,-2.430045366,0.51940155,0.335910082,-0.023585346,-0.542045593,-0.391589403,-0.743535042
4.55616E+11,-0.599879743,2.448690937,0.385454214,-3.51859951,1.176559687,-2.189391375,0.730167925,0.549884498,-0.222920656,-0.523121417,-0.375980049,-0.764841795
4.55616E+11,-0.581897755,2.415471028,0.371365816,-2.638145208,0.3572734,-1.616417527,0.931868315,0.713245511,-0.518463433,-0.512144804,-0.362888485,-0.778472602
4.55616E+11,-0.577931963,2.396871274,0.363139719,-1.264658809,-0.471835941,-0.775912762,1.113694429,0.777986228,-0.765047967,-0.510667086,-0.35521096,-0.782971442
4.55616E+11,-0.586604541,2.396313116,0.362596601,0.311838478,-0.975020945,0.249755561,1.112408757,0.781888247,-0.866116822,-0.517544866,-0.354703188,-0.778673828
4.55616E+11,-0.601478208,2.412809081,0.366294543,1.392437577,-0.82596457,1.343096972,0.962893426,0.815616727,-0.771883547,-0.528323114,-0.358158261,-0.769803464
4.55616E+11,-0.616858659,2.442267802,0.368610333,1.851002574,-0.356656194,2.365698099,0.801017165,0.785383523,-0.634568989,-0.53961885,-0.360319465,-0.760908306
4.55616E+11,-0.631084711,2.481101093,0.367548919,2.084188938,0.078642882,3.190579891,0.584518969,0.66432184,-0.491837025,-0.55061394,-0.359329134,-0.753463268
4.55616E+11,-0.644481528,2.526571121,0.364056117,2.302904367,0.326105714,3.729076385,0.320243657,0.520419836,-0.347174346,-0.561408818,-0.356067419,-0.747018158
4.55616E+11,-0.660542032,2.575811783,0.360770772,2.620725155,0.018179942,3.860360384,0.0594301,0.391508669,-0.280049682,-0.574048042,-0.352995485,-0.73882544
4.55616E+11,-0.685247902,2.626229103,0.361324679,3.106047392,-0.972542524,3.545154095,-0.198526874,0.230741471,-0.210821539,-0.592000484,-0.353513688,-0.724267542
4.55616E+11,-0.72138824,2.673980963,0.368621461,3.521686792,-2.241294622,2.668729544,-0.58472693,-0.026495723,-0.014685087,-0.616063476,-0.360329837,-0.700448573
4.55616E+11,-0.77048668,2.712164522,0.384283749,3.525094032,-3.978091717,1.131247282,-0.844424307,-0.268674731,0.2451628,-0.645687997,-0.374895215,-0.665237248
4.55616E+11,-0.835074373,2.736527689,0.4092259,3.274961472,-6.017855167,-0.684148192,-0.932217658,-0.47382009,0.395095795,-0.680132806,-0.39789927,-0.615707338
4.55616E+11,-0.912408967,2.748992902,0.444189402,3.053587198,-7.547356606,-2.335795879,-0.933497667,-0.622581065,0.591851413,-0.71422267,-0.429726094,-0.552468479
4.55616E+11,-0.99635111,2.754607966,0.486658277,2.783112764,-8.268037796,-3.389094114,-0.801916122,-0.644217968,0.683668733,-0.74202919,-0.467674762,-0.480284333
4.55616E+11,-1.075710223,2.756314662,0.530152291,2.143674612,-7.517436981,-3.680864573,-0.670333683,-0.664043546,0.72251153,-0.759140193,-0.505664706,-0.40988946
4.55616E+11,-1.127057731,2.750763724,0.564587749,0.718234599,-4.58241415,-3.076620579,-0.590447366,-0.708737373,0.917319119,-0.762991965,-0.535067558,-0.362692654
4.55616E+11,-1.132771813,2.730048662,0.581375179,-1.427747011,-0.724481344,-1.966413617,-0.529170096,-0.535909295,1.016454101,-0.756810129,-0.549173713,-0.354466736
4.55616E+11,-1.093023752,2.690713502,0.578662213,-3.575482845,2.560721874,-0.98143208,-0.300864488,-0.314286351,0.943248034,-0.743447006,-0.546904445,-0.38494423
4.55616E+11,-1.024559084,2.640071347,0.560267518,-4.884531975,4.522397995,-0.343628973,-0.002137141,-0.16011548,0.771200836,-0.723845541,-0.53141284,-0.440054595
4.55616E+11,-0.94569108,2.588276823,0.531665321,-5.33070612,5.320055962,0.005126363,0.227562904,-0.033222161,0.51931417,-0.698967934,-0.506969512,-0.504406333
4.55616E+11,-0.871192433,2.542644498,0.499414058,-4.965265274,5.081215858,0.127535909,0.464543313,0.18948254,0.110190958,-0.671650887,-0.478911251,-0.565269053
4.55616E+11,-0.809977979,2.509779748,0.469958946,-3.795397758,4.406723499,0.311998129,0.65428108,0.362242997,-0.33813414,-0.645751417,-0.452849686,-0.614761949
4.55616E+11,-0.76430082,2.493242171,0.446994908,-2.292192936,3.630524397,0.687891603,0.767030478,0.537116051,-0.607449234,-0.624040365,-0.432257652,-0.6509431
4.55616E+11,-0.733441101,2.492518549,0.430790694,-0.897069037,2.865109921,1.18247366,0.827704668,0.705324352,-0.776092529,-0.608268023,-0.417589396,-0.675003052
4.55616E+11,-0.716211826,2.505471946,0.420766328,0.328995645,2.031367302,1.667057395,0.876244307,0.791837156,-0.804750204,-0.599266768,-0.408460051,-0.688505411
4.55616E+11,-0.713425798,2.530166449,0.41623356,1.385152221,1.024064064,2.107822657,0.865717888,0.796148896,-0.776742339,-0.59855175,-0.404318482,-0.691565156
4.55616E+11,-0.724940588,2.563900543,0.415525252,2.145213842,-0.080825716,2.435538769,0.570028484,0.673262835,-0.499271065,-0.606664836,-0.403670549,-0.684841454
4.55616E+11,-0.751287413,2.602715081,0.417718668,2.668394804,-1.405885696,2.466908932,0.303394139,0.516058385,-0.364588976,-0.623889744,-0.405676335,-0.66797328
4.55616E+11,-0.793502333,2.643765935,0.423559288,3.152567148,-2.93483758,2.187471151,0.025205405,0.305127084,-0.242338061,-0.649823964,-0.411007822,-0.639375806
4.55616E+11,-0.851153247,2.685619725,0.434714735,3.672298908,-4.359555244,1.612093568,-0.267719984,0.075662181,-0.031094218,-0.682093859,-0.421151698,-0.597812057
4.55616E+11,-0.921500872,2.726916319,0.452086822,4.065557003,-5.541083336,0.797346473,-0.511491001,-0.123932101,0.206862301,-0.716490567,-0.436843663,-0.543883145
4.55616E+11,-1.001827692,2.765996937,0.475294519,4.209494114,-6.510083675,-0.140049487,-0.671134353,-0.28162694,0.407344788,-0.749077439,-0.457600355,-0.479045838
4.55616E+11,-1.087717874,2.801789871,0.503378,4.078062534,-6.947620869,-1.063357472,-0.741704106,-0.501835167,0.641355693,-0.775721431,-0.482387275,-0.406889141
4.55616E+11,-1.166211688,2.831269878,0.532799105,3.338869572,-6.095277309,-1.680561304,-0.780756056,-0.610034525,0.908517182,-0.791845262,-0.507946432,-0.339074403
4.55616E+11,-1.223318182,2.8486639,0.558418226,1.936370492,-4.326472282,-1.851685643,-0.733049095,-0.583359599,1.025814414,-0.797407448,-0.529845357,-0.288799644
4.55616E+11,-1.25178256,2.849552537,0.57731592,0.270347238,-2.2864151,-1.708174109,-0.605119169,-0.543914318,1.027006269,-0.795652926,-0.545776844,-0.262800366
4.55616E+11,-1.252203584,2.834309878,0.588866353,-1.188847303,-0.449328214,-1.41525352,-0.432962924,-0.492158234,0.9526425,-0.789723873,-0.55541867,-0.260473311
4.55616E+11,-1.230549032,2.806365091,0.593555461,-2.306854725,0.922296703,-1.125065088,-0.256300002,-0.432402611,0.80901897,-0.781434953,-0.559311867,-0.276639819
4.55616E+11,-1.192085898,2.768218486,0.592117704,-3.232515574,1.959525943,-0.930414975,-0.086395249,-0.302979797,0.647860944,-0.770965576,-0.558119476,-0.306781232
4.55616E+11,-1.138296439,2.721779589,0.583762921,-4.093387127,3.097908497,-0.689305127,0.107432932,-0.157511607,0.50695622,-0.757564187,-0.551167607,-0.349729657
4.55616E+11,-1.070144448,2.669478917,0.566898497,-4.846462727,4.233541012,-0.391921312,0.289431751,0.086487293,0.297352582,-0.740039051,-0.537018299,-0.404911786
4.55616E+11,-0.99568734,2.617138246,0.542737707,-5.051538467,4.746778965,-0.147524104,0.553035796,0.357500881,-0.126980007,-0.718547881,-0.516482234,-0.465762913
4.55616E+11,-0.930371493,2.575143532,0.517021832,-4.131968021,4.216451168,0.117206633,0.818436265,0.516571283,-0.668369949,-0.697037339,-0.494293422,-0.519435227
4.55616E+11,-0.885772208,2.553432622,0.496673585,-2.241935492,3.102525949,0.560271382,0.946047485,0.661257088,-0.981856108,-0.680834472,-0.4765037,-0.556245089
4.55616E+11,-0.865166885,2.553695069,0.484635648,-0.280388504,1.701173306,1.059485793,0.980797887,0.834309459,-1.12921524,-0.67354691,-0.465885997,-0.573833406
4.55616E+11,-0.867471053,2.572126947,0.481030585,1.415454626,0.298819393,1.414336324,0.936947167,0.831879437,-1.151887774,-0.676143944,-0.462693065,-0.57336247
4.55616E+11,-0.885433903,2.60463602,0.482994386,2.577849388,-0.41964522,1.796325684,0.79300487,0.73968643,-0.925641835,-0.685628772,-0.464433104,-0.560548961
4.55616E+11,-0.908872327,2.646039116,0.48373943,2.96456933,-0.356431842,2.387194395,0.605042756,0.665715337,-0.659301341,-0.698304474,-0.465092808,-0.544113576
4.55616E+11,-0.930295905,2.692075633,0.478446454,2.893554926,0.107467696,3.051725626,0.357577026,0.555584967,-0.432290465,-0.711764038,-0.460400641,-0.530493379
4.55616E+11,-0.948703659,2.740608055,0.468148664,2.899550915,0.431571543,3.452946663,0.03195487,0.409059614,-0.268643439,-0.725222707,-0.451234907,-0.520037591
4.55616E+11,-0.968994762,2.791509494,0.457975236,3.245357752,0.11144872,3.407087564,-0.233148128,0.243539765,-0.134255409,-0.739370823,-0.44213289,-0.507788658
4.55616E+11,-0.999004964,2.844124968,0.452720204,3.769664049,-1.016804457,2.89588213,-0.46848309,0.065114126,0.004157616,-0.756217837,-0.437413335,-0.486625254
4.55616E+11,-1.04298912,2.894534221,0.455212908,4.017493725,-2.590067148,1.867206573,-0.68426609,-0.185621113,0.280356139,-0.775938988,-0.439653546,-0.452353209
4.55616E+11,-1.100747096,2.937005394,0.46650359,3.79059267,-4.336415291,0.474415064,-0.785689175,-0.367235094,0.562324047,-0.79628104,-0.449766248,-0.404532909
4.55616E+11,-1.172479664,2.969159778,0.486314713,3.280661106,-6.138599396,-0.934500754,-0.782223701,-0.482702196,0.748339772,-0.814852715,-0.467371047,-0.342898488
4.55616E+11,-1.255533716,2.992008889,0.513288603,2.654366493,-7.505880356,-2.07982254,-0.673004925,-0.54612571,0.877653241,-0.828200519,-0.4910447,-0.270109266
4.55616E+11,-1.344511715,3.0081438,0.544312012,2.009799719,-8.211208344,-2.750194788,-0.535969496,-0.517433405,0.915277898,-0.833674669,-0.517829657,-0.191934973
4.55616E+11,-1.431888932,3.019537917,0.576136229,1.356580615,-8.00514698,-2.979470491,-0.409386843,-0.455501974,0.848958969,-0.830496609,-0.544787943,-0.11610987
4.55616E+11,-1.506327588,3.025495823,0.605479578,0.582260132,-6.729800701,-2.795556784,-0.341756076,-0.398067653,0.799065113,-0.820521116,-0.569156468,-0.052971371
4.55616E+11,-1.55724036,3.022515764,0.629745123,-0.413472146,-4.721164703,-2.278247118,-0.290743053,-0.320652872,0.724761426,-0.808103383,-0.588938773,-0.010955294
4.55616E+11,-1.572539605,3.005441651,0.645984347,-1.716510057,-1.69572103,-1.370549679,-0.218522429,-0.306279421,0.618648887,-0.798506379,-0.601984739,0.00139202
4.55616E+11,-1.536079836,2.967420302,0.649962111,-3.49004364,2.383224964,-0.115869507,-0.105709642,-0.194297493,0.626326323,-0.795626998,-0.605156243,-0.02763248
4.55616E+11,-1.450110632,2.908725602,0.638838228,-5.124687195,5.83340168,0.999498844,0.10854952,0.117289796,0.47560215,-0.796949804,-0.59626317,-0.096650131
4.55616E+11,-1.342124939,2.845206404,0.614554657,-5.458988667,7.266096592,1.627687454,0.467590958,0.297053695,0.091610037,-0.795761704,-0.57659471,-0.185207456
4.55616E+11,-1.248864059,2.79912606,0.584789792,-4.00383091,6.367278576,1.87605679,0.722723067,0.370536089,-0.476655155,-0.790990889,-0.552024126,-0.26382336
4.55616E+11,-1.192578125,2.782951512,0.559582814,-1.485905528,4.152160168,1.902503014,0.787412584,0.454584509,-1.013609767,-0.787580431,-0.530832708,-0.312943608
4.55616E+11,-1.175346815,2.794905991,0.543928255,0.9118312,1.745261312,1.80183208,0.746125758,0.561507642,-1.270163894,-0.789643824,-0.517501295,-0.329628587
4.55616E+11,-1.191769056,2.826535005,0.537293485,2.650882721,-0.579469919,1.580029964,0.653087854,0.608721256,-1.187627912,-0.798122644,-0.511812687,-0.317880481
4.55616E+11,-1.234303083,2.870352332,0.536609495,3.717512369,-2.448051929,1.313887715,0.502303004,0.523157358,-0.924038112,-0.811247706,-0.511224985,-0.283771366
4.55616E+11,-1.296702567,2.918677057,0.539031562,4.083818436,-4.229316711,0.903241515,0.314680248,0.380309492,-0.569600523,-0.826170087,-0.513305128,-0.232294649
4.55616E+11,-1.378847214,2.967056902,0.544299001,4.162415504,-6.194468975,0.283764154,-0.10850919,0.028408119,0.023921894,-0.839778781,-0.517818511,-0.163204119
4.55616E+11,-1.475191424,3.014814709,0.552651772,4.128211021,-7.35523653,-0.41251424,-0.288829267,-0.150316358,0.291225016,-0.847248614,-0.524946094,-0.08124882
4.55616E+11,-1.574937792,3.061182921,0.563065823,3.904687166,-7.501978874,-0.995043993,-0.417797118,-0.213167012,0.482459813,-0.845615327,-0.53378123,0.003502106
4.55616E+11,-1.671165319,3.105159989,0.574881638,3.533909321,-7.135888577,-1.494433761,-0.434559375,-0.279018462,0.595471442,-0.83503288,-0.543735445,0.084093988
4.55616E+11,-1.760816086,-3.137009714,0.58848256,3.06786108,-6.560667515,-1.949384212,-0.346441507,-0.303451538,0.642973423,-0.816812277,-0.555099487,0.157105938
4.55616E+11,-1.845108194,-3.09896068,0.604061317,2.587122917,-6.25067997,-2.326677799,-0.183978245,-0.237857416,0.572874486,-0.792263806,-0.567989767,0.222947672
4.55616E+11,-1.931931554,-3.061581971,0.620942278,2.33176136,-6.663071156,-2.621325731,0.004230197,-0.205841631,0.425007731,-0.760867774,-0.581801772,0.287379354
4.55616E+11,-2.026035273,-3.022035946,0.636800726,2.304381609,-7.203973293,-2.739108562,0.134762868,-0.153741047,0.33840856,-0.722119451,-0.594626248,0.35350123
4.55616E+11,-2.126671858,-2.980356052,0.649411138,2.309416771,-7.680594921,-2.700342178,0.204877853,-0.057880137,0.204423606,-0.676527023,-0.604717493,0.420271218
4.55616E+11,-2.233959134,-2.937032109,0.657537375,2.37770009,-8.215315819,-2.608229876,0.248130292,-0.017553605,0.045167912,-0.623740613,-0.611169517,0.487257004
4.55616E+11,-2.34353201,-2.893351135,0.659643075,2.484241247,-8.205752373,-2.343963623,0.150205538,-0.078907095,-0.014457958,-0.565793931,-0.612834871,0.55164361
4.55616E+11,-2.439050482,-2.855627346,0.655255387,2.273549557,-6.789748669,-1.700060725,-0.015771413,-0.099851497,0.021694042,-0.5123353,-0.609361768,0.605136991
4.55616E+11,-2.502158388,-2.831744975,0.6480991,1.516739845,-4.141292095,-0.816196442,-0.155376852,-0.036296833,0.042112734,-0.475741923,-0.603672028,0.639726281
4.55616E+11,-2.524978362,-2.824949642,0.643639617,0.392270565,-1.123130798,0.027019462,-0.192410558,0.014341148,0.005521839,-0.462572962,-0.600110829,0.652604997
4.55616E+11,-2.508202332,-2.83424443,0.642836559,-0.601274729,1.889966011,0.86455673,-0.19293119,-0.027027134,0.003555277,-0.473740578,-0.599468231,0.645141602
4.55616E+11,-2.452089204,-2.858616377,0.642938494,-1.388958454,4.844165325,1.748649597,-0.164323941,0.07592921,0.011335268,-0.509137988,-0.59954983,0.617509961
4.55616E+11,-2.366773808,-2.894189866,0.640822423,-1.824064493,6.819312096,2.396814585,-0.128752992,0.131119058,-0.100509815,-0.560791671,-0.597854912,0.572784603
4.55616E+11,-2.269292432,-2.931802596,0.634300581,-1.70386982,7.628035069,2.531671047,-0.087984338,0.111947171,-0.159933999,-0.616849661,-0.592614293,0.51798147
4.55616E+11,-2.179406866,-2.960884962,0.623980574,-1.043609977,7.005772114,2.110316753,-0.088937804,0.103908315,-0.235399202,-0.665838182,-0.584270239,0.463991135
4.55616E+11,-2.120491695,-2.97322299,0.61347499,0.013995945,4.408691406,1.165725827,-0.073553108,0.041883528,-0.322244644,-0.697198868,-0.575712264,0.427164078
4.55616E+11,-2.111261008,-2.965558947,0.607290181,1.136376619,0.182822645,-0.133665562,0.066151358,0.010463597,-0.243884474,-0.704151869,-0.570644259,0.422534376
4.55616E+11,-2.168113013,-2.938098949,0.606763838,2.184132099,-5.611702919,-1.494262576,0.269600749,-0.009301599,-0.213069052,-0.679253459,-0.570211947,0.462031454
4.55616E+11,-2.286018959,-2.893760957,0.60716318,3.068804264,-10.22027111,-2.454709768,0.37332657,-0.083314404,-0.177813306,-0.620015383,-0.570539951,0.538576841
4.55616E+11,-2.431190312,-2.839482703,0.601904363,3.630414009,-11.53499985,-2.864100218,0.197244942,-0.106348455,0.030235339,-0.537531197,-0.566213191,0.624870241
4.55616E+11,-2.566847045,-2.785900534,0.589400924,3.611896753,-10.03959656,-2.741605282,-0.020666547,-0.15524222,0.170572549,-0.451898158,-0.555863142,0.697713554
4.55616E+11,-2.66648615,-2.743439995,0.573959084,2.873840809,-6.684742451,-2.108509779,-0.185172305,-0.189277798,0.2300722,-0.38413313,-0.542960942,0.746749699
4.55616E+11,-2.713386779,-2.720129086,0.563742711,1.353978872,-2.311719418,-1.026115894,-0.180584773,-0.08368849,0.281440169,-0.350985646,-0.534353495,0.768944323
4.55616E+11,-2.700512964,-2.720509639,0.564649747,-0.60259068,2.501995087,0.33887136,-0.054970417,-0.028768586,0.323097259,-0.360648483,-0.535119951,0.763923585
4.55616E+11,-2.625622429,-2.746111475,0.577238959,-2.588922262,7.219876766,1.639149547,0.142503008,0.103833072,0.464051485,-0.413438052,-0.545712352,0.728880644
4.55616E+11,-2.504024022,-2.793532609,0.595245203,-3.948043823,10.10386944,2.511153936,0.259393454,0.180920541,0.401626378,-0.492868185,-0.560711801,0.665344417
4.55616E+11,-2.365610926,-2.853214917,0.610314066,-4.38713932,10.30136776,2.783819437,0.341211885,0.193074197,0.163729429,-0.573969424,-0.573124886,0.584882021
4.55616E+11,-2.249985455,-2.909355156,0.617984304,-3.647698402,7.423938274,2.356254339,0.276966184,0.1886006,-0.043095093,-0.634174466,-0.579393446,0.511982441
4.55616E+11,-2.190559197,-2.944645293,0.620560541,-2.005363941,2.642139912,1.205410957,0.238584757,0.031045726,-0.285411865,-0.662245035,-0.581491292,0.472545654
4.55616E+11,-2.194902591,-2.952808328,0.623133755,-0.269738972,-2.001065493,-0.159484372,0.141681716,-0.073964201,-0.504021585,-0.658969939,-0.583582819,0.474541605
4.55616E+11,-2.246418543,-2.93814869,0.626329781,1.044908643,-4.872972012,-1.206372499,0.018019894,-0.01552467,-0.497550726,-0.632201433,-0.586175144,0.506675482
4.55616E+11,-2.319845157,-2.909733952,0.627564964,1.824127436,-5.783960819,-1.674124479,-0.03765019,0.03874404,-0.364214301,-0.59279722,-0.587175429,0.551195502
4.55616E+11,-2.390576321,-2.877726958,0.624338574,2.093967438,-4.844325066,-1.536873698,-0.108153567,-0.068332314,-0.224120557,-0.553650618,-0.584560752,0.593093336
4.55616E+11,-2.435267535,-2.852745464,0.617924452,1.673813462,-2.294754505,-0.904353499,-0.176695719,-0.096207701,-0.040486056,-0.52902329,-0.57934469,0.620075881
4.55616E+11,-2.438795676,-2.843653729,0.613193555,0.511127055,1.017503262,-0.04591734,-0.176861674,-0.007876639,0.12652643,-0.528597891,-0.57548213,0.624022901
4.55616E+11,-2.399992982,-2.852939964,0.614411294,-0.95575732,4.036588192,0.639270067,-0.090705216,0.05131584,0.231332213,-0.551933944,-0.576477587,0.602530062
4.55616E+11,-2.333715625,-2.875885008,0.620048064,-1.889842391,5.590444088,1.019088387,0.015728584,0.068104304,0.234125242,-0.588268876,-0.581074297,0.562398791
4.55616E+11,-2.257455804,-2.904154201,0.625206025,-2.070667028,6.030113697,1.154818892,0.097615018,-0.028673038,0.162168965,-0.627079725,-0.585264325,0.514039516
4.55616E+11,-2.183579875,-2.931790234,0.628954286,-1.984687448,5.588047981,0.99375093,0.132717386,-0.056155484,0.161010146,-0.661510706,-0.588299453,0.465088487
4.55616E+11,-2.125622893,-2.956254056,0.63374263,-1.870704055,3.795601368,0.565694392,0.225648224,-0.014219505,0.128004462,-0.684937775,-0.592164755,0.424501032
4.55616E+11,-2.10042683,-2.973510779,0.640326533,-1.366194844,0.65819186,0.007265718,0.285571724,0.042800337,-0.012202789,-0.692035317,-0.597457349,0.405131876
4.55616E+11,-2.115033441,-2.978229557,0.647325664,-0.431620866,-2.471955061,-0.542763829,0.244507328,-0.063677542,-0.194896907,-0.682449818,-0.603055239,0.413021296
4.55616E+11,-2.158591017,-2.969862139,0.652618078,0.488239706,-4.138187408,-0.859257638,0.085514963,-0.097016126,-0.14932549,-0.66115278,-0.607268512,0.440569997
4.55616E+11,-2.206585427,-2.955725666,0.654321444,0.870505512,-3.689948082,-0.721898735,-0.088965006,-0.138250977,-0.022192592,-0.638421476,-0.608621001,0.471167207
4.55616E+11,-2.231424062,-2.947246151,0.65334335,0.431231707,-1.253222942,-0.167934865,-0.236121073,-0.087086424,0.119004153,-0.626992345,-0.607844591,0.487242788
4.55616E+11,-2.2132382,-2.954663444,0.652712734,-0.764564633,2.281665325,0.60243535,-0.248847082,-0.029283458,0.207847863,-0.636055887,-0.607343733,0.475990027
4.55616E+11,-2.14872551,-2.98159193,0.654168598,-2.169741631,5.565143585,1.249313951,-0.159937963,0.004831478,0.20670186,-0.664677501,-0.608499706,0.433511138
4.55616E+11,-2.051340492,-3.022205656,0.655241543,-2.992226362,7.748814106,1.607720256,-0.049921636,-0.06557598,0.147861317,-0.703099608,-0.609350801,0.366527706
4.55616E+11,-1.936287689,-3.06750512,0.652943822,-3.205902815,8.983530998,1.684595346,0.052624982,-0.05743546,0.136536479,-0.741833985,-0.607527316,0.283888936
4.55616E+11,-1.818841541,-3.110795375,0.647758832,-3.075163841,9.060596466,1.465291977,0.135855362,-0.056206204,0.077246904,-0.77303189,-0.603400707,0.195778608
4.55616E+11,-1.713397007,3.135267184,0.64184966,-2.679367065,7.954649448,1.036522508,0.193051785,-0.063065141,0.035273921,-0.792859495,-0.598678052,0.113834962
4.55616E+11,-1.631521851,3.10635741,0.637680756,-2.118879318,5.90903759,0.51945287,0.248515591,-0.088778965,0.027501749,-0.801997662,-0.595333576,0.048761681
4.55616E+11,-1.576303967,3.084361861,0.636529656,-1.659556508,3.651061535,0.065181479,0.277356774,-0.079023093,0.054897152,-0.804151177,-0.594408274,0.00442902
4.55616E+11,-1.543050814,3.065988344,0.637899828,-1.430873036,1.82748723,-0.209464461,0.260207593,-0.076640069,0.06972602,-0.803039014,-0.595509589,-0.022286449
4.55616E+11,-1.520293153,3.048175963,0.639880445,-1.434927464,1.108495951,-0.249957815,0.198239103,-0.103629827,0.103925556,-0.801144361,-0.597099543,-0.040494766
4.55616E+11,-1.495372114,3.028285412,0.640091547,-1.657718182,1.442072749,-0.060447555,0.11784555,-0.107046314,0.127193183,-0.799760818,-0.597268879,-0.060435977
4.55616E+11,-1.458609637,3.004309973,0.636344646,-2.06461668,2.570022583,0.284001946,0.069175921,-0.131204352,0.133740783,-0.799217403,-0.594259501,-0.090039618
4.55616E+11,-1.40375795,2.974874806,0.627487726,-2.614636183,4.143660069,0.631766319,0.097539097,-0.117446415,0.14034304,-0.79823792,-0.587112904,-0.134590477
4.55616E+11,-1.33217275,2.940914634,0.613198629,-3.104548454,5.48145771,0.90646261,0.163198918,-0.100294977,0.110645488,-0.794638097,-0.575486302,-0.193302348
4.55616E+11,-1.249637676,2.905244644,0.593825176,-3.428598166,6.454027176,1.090053916,0.229621336,-0.110310145,0.102278627,-0.786429822,-0.559535444,-0.261626154
4.55616E+11,-1.16036021,2.869998615,0.569994268,-3.646545172,7.117560387,1.193203807,0.271325201,-0.112686008,0.15367654,-0.771981299,-0.539627194,-0.335927516
4.55616E+11,-1.069984166,2.83700388,0.542367067,-3.751265764,7.322508335,1.263286948,0.290384084,-0.16416356,0.121468753,-0.751306295,-0.51616478,-0.411233157
4.55616E+11,-0.981063536,2.807055119,0.511637593,-3.824879885,7.391433716,1.280351162,0.262642384,-0.204150304,0.18372874,-0.724663258,-0.489605784,-0.484921992
4.55616E+11,-0.89448917,2.779224287,0.478617149,-3.964411259,7.285706997,1.179699421,0.239084557,-0.190723479,0.215908721,-0.692255318,-0.460552156,-0.55558461
4.55616E+11,-0.812093153,2.752585213,0.443787397,-4.120509148,6.954609394,1.007225394,0.230578437,-0.190586284,0.195647836,-0.655428886,-0.429363042,-0.621337533
4.55616E+11,-0.735143317,2.727234213,0.407865301,-4.192347527,6.537577152,0.804906726,0.221419647,-0.173158318,0.204357892,-0.615676224,-0.396650642,-0.680889904
4.55616E+11,-0.664581689,2.703440534,0.371235953,-4.222072601,5.995449066,0.638057292,0.244624689,-0.12800096,0.185975343,-0.574718058,-0.362767458,-0.733552277
4.55616E+11,-0.603193481,2.682003588,0.334021912,-4.164151192,5.172458172,0.564647734,0.212756887,-0.075612344,0.112394102,-0.535922766,-0.327845305,-0.778012991
4.55616E+11,-0.553182734,2.663088343,0.297737657,-3.9578228,4.145676136,0.435954481,0.188851014,-0.051322632,0.027700337,-0.502281785,-0.293358147,-0.81342119
4.55616E+11,-0.514057489,2.645500794,0.264020443,-3.698064089,3.209930182,0.187348381,0.164296746,-0.053245205,-0.064155765,-0.474675775,-0.260963768,-0.840583622
4.55616E+11,-0.482616399,2.627711955,0.233102894,-3.481039047,2.55850482,-0.111075595,0.126915738,-0.026677566,-0.118229695,-0.45154646,-0.230997607,-0.861827075
4.55616E+11,-0.456963795,2.609754103,0.205166847,-3.20462513,2.045423985,-0.351401627,0.086146452,0.011774944,-0.171672001,-0.431971639,-0.203730509,-0.878575206
4.55616E+11,-0.437032253,2.593025098,0.180887711,-2.780707359,1.551172137,-0.442825556,0.062388763,0.043046791,-0.253500015,-0.416346878,-0.179902866,-0.89122963
4.55616E+11,-0.422103276,2.579213028,0.160948789,-2.237313032,1.174438477,-0.386635274,0.060024839,0.038153976,-0.296353251,-0.404385179,-0.160254806,-0.900439322
4.55616E+11,-0.410275162,2.568950582,0.145469086,-1.693255782,0.990090609,-0.270215183,0.031138768,0.02395438,-0.290199369,-0.39464891,-0.144956574,-0.907325625
4.55616E+11,-0.399604336,2.56182333,0.133494338,-1.287062883,0.971133173,-0.146447703,-0.004864741,0.005626272,-0.261541724,-0.385592401,-0.1330982,-0.913018823
4.55616E+11,-0.388487505,2.557158415,0.123513291,-1.047330737,1.08887136,-0.005565685,-0.01046438,0.009460473,-0.240045145,-0.375903428,-0.123199485,-0.918432653
4.55616E+11,-0.375987377,2.554819697,0.114129272,-0.935306787,1.26279211,0.185641021,-0.019169884,0.03424605,-0.195107371,-0.364802271,-0.11388167,-0.924094319
4.55616E+11,-0.36240364,2.55463619,0.104527726,-0.894430935,1.382404327,0.372939557,-0.055188108,0.078824788,-0.16072388,-0.352587759,-0.104337484,-0.92994386
4.55616E+11,-0.348151643,2.555820867,0.094602095,-0.888876975,1.446452141,0.474085093,-0.092554495,0.094766229,-0.131459013,-0.339635432,-0.094461054,-0.935801744
4.55616E+11,-0.333831809,2.557140072,0.084723299,-0.884757698,1.432522297,0.432507277,-0.121477127,0.117809847,-0.11959976,-0.326490402,-0.084621981,-0.941404879
4.55616E+11,-0.321098893,2.557770882,0.075963543,-0.767443359,1.210438371,0.309096903,-0.130964145,0.128472298,-0.141264886,-0.314699322,-0.075890504,-0.946152747
4.55616E+11,-0.311563355,2.557944183,0.069852956,-0.504984081,0.863306582,0.171796054,-0.135255784,0.125826433,-0.161092043,-0.305799514,-0.06979616,-0.949534178
4.55616E+11,-0.305489211,2.557877962,0.06664922,-0.248812556,0.529007554,0.066480279,-0.13322708,0.138728186,-0.162248075,-0.300092012,-0.066599883,-0.951582491
4.55616E+11,-0.301723866,2.557623617,0.065160913,-0.129169017,0.334749401,0.009126438,-0.112414822,0.141393498,-0.147481486,-0.296535999,-0.065114811,-0.952799261
4.55616E+11,-0.299014585,2.557433898,0.063891508,-0.130941153,0.260488331,0.03069325,-0.064695485,0.154729396,-0.086865202,-0.293977618,-0.063848048,-0.953677416
4.55616E+11,-0.295675741,2.557998066,0.062393424,-0.121345572,0.376548707,0.12420243,-0.057111565,0.146688282,-0.049680989,-0.290819347,-0.062352948,-0.954744041
4.55616E+11,-0.290865928,2.559875883,0.06104891,-0.056373283,0.526801407,0.249462873,-0.068168253,0.11083094,-0.049709164,-0.286247641,-0.061010994,-0.956211269
4.55616E+11,-0.284902999,2.562916806,0.06000079,-0.003150056,0.641873479,0.338587672,-0.068867683,0.110654496,-0.039566122,-0.280558586,-0.059964795,-0.957961977
4.55616E+11,-0.277613951,2.566337647,0.058618265,-0.064133562,0.773526371,0.372497976,0.058014851,0.106421001,-0.063041501,-0.273591012,-0.058584701,-0.960060298
4.55616E+11,-0.270726386,2.570602441,0.056827595,-0.038807753,0.692218244,0.496432692,-0.010847556,0.101123795,0.037247267,-0.266999722,-0.056797013,-0.96202141
4.55616E+11,-0.264827092,2.5766364,0.054875557,-0.040914625,0.60996604,0.673789918,-0.041340202,0.124046631,0.078446314,-0.261348397,-0.054848019,-0.963684976
4.55616E+11,-0.25813835,2.583307511,0.051741536,-0.167678744,0.708643734,0.730385065,0.010478326,0.081549384,0.05700361,-0.254939377,-0.051718451,-0.965572953
4.55616E+11,-0.25221862,2.589650743,0.047449253,-0.275939465,0.596881866,0.713949621,-0.086238131,0.052009087,0.050813116,-0.249272123,-0.04743145,-0.967271268
4.55616E+11,-0.249956426,2.595767398,0.042316295,-0.247289106,0.569167852,0.671295941,-0.127005205,0.037146196,0.049614049,-0.247140303,-0.042303666,-0.968055844
4.55616E+11,-0.244384181,2.601577728,0.03923072,-0.121923521,0.582019031,0.627170563,-0.151949853,0.02016243,0.018627472,-0.241772681,-0.039220657,-0.96953994
4.55616E+11,-0.238657113,2.607337852,0.037914157,0.055535905,0.60663712,0.577532172,-0.168206081,0.007433272,0.01696327,-0.236228123,-0.037905075,-0.970957994
4.55616E+11,-0.231981068,2.612977132,0.038394408,0.212433323,0.72038877,0.522346675,-0.160690099,0.001504483,0.047217902,-0.229736537,-0.038384974,-0.972495615
4.55616E+11,-0.225178781,2.618260333,0.039897194,0.277771264,0.82967627,0.459961414,-0.123347856,0.00686659,0.066004261,-0.223102942,-0.039886609,-0.973978519
4.55616E+11,-0.217091302,2.623007332,0.041613135,0.264863431,0.810392916,0.415245891,-0.076391809,0.007314628,0.082677335,-0.215203643,-0.041601125,-0.975682676
4.55616E+11,-0.210920692,2.627244238,0.043078643,0.224046424,0.554270148,0.371322095,-0.051942356,-0.006174793,0.109926999,-0.20916605,-0.043065321,-0.976931393
4.55616E+11,-0.208987826,2.631008152,0.044407539,0.204193562,0.089016244,0.329039097,-0.063547671,-0.022333739,0.15369913,-0.207265317,-0.044392943,-0.977276981
4.55616E+11,-0.211142838,2.634058199,0.045654327,0.17638506,-0.281876802,0.248085111,-0.09146791,-0.043411825,0.172772348,-0.209359124,-0.045638468,-0.976773202
4.55616E+11,-0.215062891,2.635797218,0.046746001,0.132518753,-0.394961745,0.11091873,-0.081028968,-0.044213403,0.172276363,-0.213175744,-0.04672898,-0.975895762
